participant,staircase_threshold,dem_age,dem_gen,bias_source,bias_direction,trial_number,reference_length,target_length,line_type,answer,rt,accuracy
S001,10,20,2,mullerlyer,long,0,350,360,long,short,1.98849403391,FALSE
S001,10,20,2,mullerlyer,long,1,350,360,long,long,0.886173703323,TRUE
S001,10,20,2,mullerlyer,long,2,350,342,short,long,1.05924525113,FALSE
S001,10,20,2,mullerlyer,long,3,350,338,short,short,1.28910981047,TRUE
S001,10,20,2,mullerlyer,long,4,350,336,short,long,2.54595624968,FALSE
S001,10,20,2,mullerlyer,long,5,350,362,long,long,1.96317384519,TRUE
S001,10,20,2,mullerlyer,long,6,350,362,long,long,0.686080431286,TRUE
S001,10,20,2,mullerlyer,long,7,350,338,short,short,1.4426265285,TRUE
S001,10,20,2,mullerlyer,long,8,350,356,long,long,0.995572747661,TRUE
S001,10,20,2,mullerlyer,long,9,350,336,short,short,1.16879099517,TRUE
S001,10,20,2,mullerlyer,long,10,350,366,long,long,1.10796766569,TRUE
S001,10,20,2,mullerlyer,long,11,350,358,long,long,0.730112379221,TRUE
S001,10,20,2,mullerlyer,long,12,350,340,short,long,0.918419265354,FALSE
S001,10,20,2,mullerlyer,long,13,350,362,long,long,0.956240925597,TRUE
S001,10,20,2,mullerlyer,long,14,350,356,long,long,0.743781109544,TRUE
S001,10,20,2,mullerlyer,long,15,350,334,short,short,0.805659107305,TRUE
S001,10,20,2,mullerlyer,long,16,350,360,long,long,0.761761785027,TRUE
S001,10,20,2,mullerlyer,long,17,350,358,long,long,0.852574640268,TRUE
S001,10,20,2,mullerlyer,long,18,350,358,long,long,1.68065556055,TRUE
S001,10,20,2,mullerlyer,long,19,350,358,long,long,0.621136228489,TRUE
S001,10,20,2,mullerlyer,long,20,350,342,short,short,1.68064016614,TRUE
S001,10,20,2,mullerlyer,long,21,350,362,long,long,0.628416277027,TRUE
S001,10,20,2,mullerlyer,long,22,350,360,long,long,0.682332646119,TRUE
S001,10,20,2,mullerlyer,long,23,350,336,short,short,0.680509464546,TRUE
S001,10,20,2,mullerlyer,long,24,350,354,long,long,0.670645267424,TRUE
S001,10,20,2,mullerlyer,long,25,350,358,long,short,1.67695546788,FALSE
S001,10,20,2,mullerlyer,long,26,350,356,long,long,0.936326289131,TRUE
S001,10,20,2,mullerlyer,long,27,350,340,short,short,1.29504450797,TRUE
S001,10,20,2,mullerlyer,long,28,350,334,short,short,0.692636036813,TRUE
S001,10,20,2,mullerlyer,long,29,350,360,long,long,0.714187310778,TRUE
S001,10,20,2,mullerlyer,long,30,350,336,short,short,0.98952364853599994,TRUE
S001,10,20,2,mullerlyer,long,31,350,340,short,long,1.05114446903,FALSE
S001,10,20,2,mullerlyer,long,32,350,360,long,long,0.539650576989,TRUE
S001,10,20,2,mullerlyer,long,33,350,346,short,short,1.30935316295,TRUE
S001,10,20,2,mullerlyer,long,34,350,354,long,long,0.84650773192,TRUE
S001,10,20,2,mullerlyer,long,35,350,340,short,short,0.775453154195,TRUE
S001,10,20,2,mullerlyer,long,36,350,338,short,short,1.15792072782,TRUE
S001,10,20,2,mullerlyer,long,37,350,354,long,short,1.13719622444,FALSE
S001,10,20,2,mullerlyer,long,38,350,342,short,short,0.941742708028,TRUE
S001,10,20,2,mullerlyer,long,39,350,338,short,short,0.626610904678,TRUE
S001,10,20,2,mullerlyer,long,40,350,362,long,short,0.971827618786,FALSE
S001,10,20,2,mullerlyer,long,41,350,358,long,long,1.29625976111,TRUE
S001,10,20,2,mullerlyer,long,42,350,362,long,long,1.26666083088,TRUE
S001,10,20,2,mullerlyer,long,43,350,340,short,short,0.725554123439,TRUE
S001,10,20,2,mullerlyer,long,44,350,342,short,short,1.37868205706,TRUE
S001,10,20,2,mullerlyer,long,45,350,336,short,short,0.835909130699,TRUE
S001,10,20,2,mullerlyer,long,46,350,362,long,long,0.594473405396,TRUE
S001,10,20,2,mullerlyer,long,47,350,340,short,long,0.845172945676,FALSE
S001,10,20,2,mullerlyer,long,48,350,346,short,long,0.719623350005,FALSE
S001,10,20,2,mullerlyer,long,49,350,356,long,long,0.571887989037,TRUE
S001,10,20,2,mullerlyer,short,300,350,340,short,short,1.71131821461,TRUE
S001,10,20,2,mullerlyer,short,301,350,358,long,long,1.03889745811,TRUE
S001,10,20,2,mullerlyer,short,302,350,366,long,long,0.618701496276,TRUE
S001,10,20,2,mullerlyer,short,303,350,356,long,long,1.77447002466,TRUE
S001,10,20,2,mullerlyer,short,304,350,358,long,long,0.73483333283,TRUE
S001,10,20,2,mullerlyer,short,305,350,336,short,short,0.599899181681,TRUE
S001,10,20,2,mullerlyer,short,306,350,362,long,long,0.659753870488,TRUE
S001,10,20,2,mullerlyer,short,307,350,340,short,short,0.576736927577,TRUE
S001,10,20,2,mullerlyer,short,308,350,346,short,short,0.636671305114,TRUE
S001,10,20,2,mullerlyer,short,309,350,356,long,long,0.387577915355,TRUE
S001,10,20,2,mullerlyer,short,310,350,362,long,long,1.48458838054,TRUE
S001,10,20,2,mullerlyer,short,311,350,360,long,long,0.57062957116,TRUE
S001,10,20,2,mullerlyer,short,312,350,338,short,short,0.764137656246,TRUE
S001,10,20,2,mullerlyer,short,313,350,338,short,long,0.507970684206,FALSE
S001,10,20,2,mullerlyer,short,314,350,336,short,short,0.723089809803,TRUE
S001,10,20,2,mullerlyer,short,315,350,358,long,long,1.33106834214,TRUE
S001,10,20,2,mullerlyer,short,316,350,340,short,short,0.619177213853,TRUE
S001,10,20,2,mullerlyer,short,317,350,336,short,short,0.520783364374,TRUE
S001,10,20,2,mullerlyer,short,318,350,344,short,short,0.442362408652,TRUE
S001,10,20,2,mullerlyer,short,319,350,338,short,short,1.10519033231,TRUE
S001,10,20,2,mullerlyer,short,320,350,362,long,long,1.00687194564,TRUE
S001,10,20,2,mullerlyer,short,321,350,362,long,long,0.391051921434,TRUE
S001,10,20,2,mullerlyer,short,322,350,338,short,short,0.553879241387,TRUE
S001,10,20,2,mullerlyer,short,323,350,356,long,short,1.23202671987,FALSE
S001,10,20,2,mullerlyer,short,324,350,336,short,short,0.809122246739,TRUE
S001,10,20,2,mullerlyer,short,325,350,360,long,long,0.974473646876,TRUE
S001,10,20,2,mullerlyer,short,326,350,340,short,short,0.657096070198,TRUE
S001,10,20,2,mullerlyer,short,327,350,338,short,short,0.519690662835,TRUE
S001,10,20,2,mullerlyer,short,328,350,360,long,long,0.801182049509,TRUE
S001,10,20,2,mullerlyer,short,329,350,362,long,short,0.659659994748,FALSE
S001,10,20,2,mullerlyer,short,330,350,344,short,short,0.556914355744,TRUE
S001,10,20,2,mullerlyer,short,331,350,338,short,short,0.727892866953,TRUE
S001,10,20,2,mullerlyer,short,332,350,362,long,short,1.20602102696,FALSE
S001,10,20,2,mullerlyer,short,333,350,342,short,long,0.623130257872,FALSE
S001,10,20,2,mullerlyer,short,334,350,360,long,long,0.493820501133,TRUE
S001,10,20,2,mullerlyer,short,335,350,360,long,long,1.2925234463,TRUE
S001,10,20,2,mullerlyer,short,336,350,360,long,long,0.529784870611,TRUE
S001,10,20,2,mullerlyer,short,337,350,342,short,long,0.551930489693,FALSE
S001,10,20,2,mullerlyer,short,338,350,338,short,short,0.436437974095,TRUE
S001,10,20,2,mullerlyer,short,339,350,336,short,short,0.71345381223,TRUE
S001,10,20,2,mullerlyer,short,340,350,358,long,long,0.920120197169,TRUE
S001,10,20,2,mullerlyer,short,341,350,356,long,short,0.776625242613,FALSE
S001,10,20,2,mullerlyer,short,342,350,340,short,short,0.530084608907,TRUE
S001,10,20,2,mullerlyer,short,343,350,334,short,short,0.470466571483,TRUE
S001,10,20,2,mullerlyer,short,344,350,360,long,long,1.08104706163,TRUE
S001,10,20,2,mullerlyer,short,345,350,364,long,long,0.636053113746,TRUE
S001,10,20,2,mullerlyer,short,346,350,356,long,long,0.472898587034,TRUE
S001,10,20,2,mullerlyer,short,347,350,364,long,long,0.703032699546,TRUE
S001,10,20,2,mullerlyer,short,348,350,342,short,short,0.533026149374,TRUE
S001,10,20,2,mullerlyer,short,349,350,334,short,short,0.554326283094,TRUE
S001,10,20,2,mullerlyer,long,500,350,364,long,long,1.12500445231,TRUE
S001,10,20,2,mullerlyer,long,501,350,356,long,short,0.881429809018,FALSE
S001,10,20,2,mullerlyer,long,502,350,364,long,short,0.495539544023,FALSE
S001,10,20,2,mullerlyer,long,503,350,342,short,long,0.874232769576,FALSE
S001,10,20,2,mullerlyer,long,504,350,334,short,short,0.50021431439,TRUE
S001,10,20,2,mullerlyer,long,505,350,358,long,long,0.857621895082,TRUE
S001,10,20,2,mullerlyer,long,506,350,360,long,long,0.738794224981,TRUE
S001,10,20,2,mullerlyer,long,507,350,364,long,long,0.45263048275,TRUE
S001,10,20,2,mullerlyer,long,508,350,342,short,short,0.945116801342,TRUE
S001,10,20,2,mullerlyer,long,509,350,336,short,long,2.34264403587,FALSE
S001,10,20,2,mullerlyer,long,510,350,356,long,short,1.09192457341,FALSE
S001,10,20,2,mullerlyer,long,511,350,360,long,long,0.522695592066,TRUE
S001,10,20,2,mullerlyer,long,512,350,344,short,short,1.09938120493,TRUE
S001,10,20,2,mullerlyer,long,513,350,340,short,long,0.997647371329,FALSE
S001,10,20,2,mullerlyer,long,514,350,342,short,long,0.816998451504,FALSE
S001,10,20,2,mullerlyer,long,515,350,336,short,short,0.71524982719,TRUE
S001,10,20,2,mullerlyer,long,516,350,340,short,short,0.890500137342,TRUE
S001,10,20,2,mullerlyer,long,517,350,338,short,short,0.6063322356,TRUE
S001,10,20,2,mullerlyer,long,518,350,338,short,long,0.513623452634,FALSE
S001,10,20,2,mullerlyer,long,519,350,342,short,long,0.46254478718000003,FALSE
S001,10,20,2,mullerlyer,long,520,350,342,short,short,1.46509603397,TRUE
S001,10,20,2,mullerlyer,long,521,350,364,long,long,0.552882226697,TRUE
S001,10,20,2,mullerlyer,long,522,350,334,short,short,0.476155260212,TRUE
S001,10,20,2,mullerlyer,long,523,350,360,long,long,0.606124863791,TRUE
S001,10,20,2,mullerlyer,long,524,350,360,long,long,0.66535683346,TRUE
S001,10,20,2,mullerlyer,long,525,350,362,long,short,0.597794976591,FALSE
S001,10,20,2,mullerlyer,long,526,350,360,long,short,0.531234058481,FALSE
S001,10,20,2,mullerlyer,long,527,350,338,short,short,0.412419367984,TRUE
S001,10,20,2,mullerlyer,long,528,350,338,short,long,0.458269064171,FALSE
S001,10,20,2,mullerlyer,long,529,350,336,short,long,0.762677903584,FALSE
S001,10,20,2,mullerlyer,long,530,350,340,short,short,0.632253712016,TRUE
S001,10,20,2,mullerlyer,long,531,350,358,long,long,0.92023852286,TRUE
S001,10,20,2,mullerlyer,long,532,350,366,long,long,0.504846221878,TRUE
S001,10,20,2,mullerlyer,long,533,350,356,long,long,1.0630189955,TRUE
S001,10,20,2,mullerlyer,long,534,350,358,long,long,0.695669641913,TRUE
S001,10,20,2,mullerlyer,long,535,350,354,long,long,0.770116424028,TRUE
S001,10,20,2,mullerlyer,long,536,350,334,short,short,0.400613361748,TRUE
S001,10,20,2,mullerlyer,long,537,350,358,long,long,0.482249938876,TRUE
S001,10,20,2,mullerlyer,long,538,350,366,long,long,0.444310254794,TRUE
S001,10,20,2,mullerlyer,long,539,350,344,short,short,0.45676675048,TRUE
S001,10,20,2,mullerlyer,long,540,350,360,long,long,0.577556755581,TRUE
S001,10,20,2,mullerlyer,long,541,350,340,short,long,0.553113444756,FALSE
S001,10,20,2,mullerlyer,long,542,350,362,long,long,0.454304851655,TRUE
S001,10,20,2,mullerlyer,long,543,350,346,short,short,0.342455076987,TRUE
S001,10,20,2,mullerlyer,long,544,350,358,long,long,0.530620998583,TRUE
S001,10,20,2,mullerlyer,long,545,350,358,long,long,0.673570206074,TRUE
S001,10,20,2,mullerlyer,long,546,350,346,short,long,0.717009619999,FALSE
S001,10,20,2,mullerlyer,long,547,350,338,short,long,0.741768969086,FALSE
S001,10,20,2,mullerlyer,long,548,350,360,long,long,0.592832843831,TRUE
S001,10,20,2,mullerlyer,long,549,350,356,long,long,0.651077759901,TRUE
S001,10,20,2,mullerlyer,long,600,350,342,short,long,1.1815097996,FALSE
S001,10,20,2,mullerlyer,long,601,350,344,short,long,0.58855893193,FALSE
S001,10,20,2,mullerlyer,long,602,350,364,long,long,0.582407807082,TRUE
S001,10,20,2,mullerlyer,long,603,350,362,long,long,0.819528568712,TRUE
S001,10,20,2,mullerlyer,long,604,350,364,long,long,0.631019442239,TRUE
S001,10,20,2,mullerlyer,long,605,350,358,long,long,0.831233152927,TRUE
S001,10,20,2,mullerlyer,long,606,350,340,short,short,0.46185384966,TRUE
S001,10,20,2,mullerlyer,long,607,350,336,short,short,0.354870520903,TRUE
S001,10,20,2,mullerlyer,long,608,350,344,short,short,0.505890325365,TRUE
S001,10,20,2,mullerlyer,long,609,350,338,short,short,0.683353205208,TRUE
S001,10,20,2,mullerlyer,long,610,350,344,short,short,1.07303230714,TRUE
S001,10,20,2,mullerlyer,long,611,350,338,short,long,0.930433247104,FALSE
S001,10,20,2,mullerlyer,long,612,350,362,long,long,0.337584405157,TRUE
S001,10,20,2,mullerlyer,long,613,350,342,short,short,0.747447998574,TRUE
S001,10,20,2,mullerlyer,long,614,350,360,long,long,0.985922563081,TRUE
S001,10,20,2,mullerlyer,long,615,350,356,long,long,1.44926242646,TRUE
S001,10,20,2,mullerlyer,long,616,350,340,short,long,1.56532634648,FALSE
S001,10,20,2,mullerlyer,long,617,350,340,short,short,0.469515438182,TRUE
S001,10,20,2,mullerlyer,long,618,350,366,long,long,0.724184322449,TRUE
S001,10,20,2,mullerlyer,long,619,350,364,long,long,0.859142923551,TRUE
S001,10,20,2,mullerlyer,long,620,350,342,short,short,0.678020399107,TRUE
S001,10,20,2,mullerlyer,long,621,350,340,short,short,0.492076706441,TRUE
S001,10,20,2,mullerlyer,long,622,350,340,short,short,1.6713742382,TRUE
S001,10,20,2,mullerlyer,long,623,350,360,long,short,0.547934582795,FALSE
S001,10,20,2,mullerlyer,long,624,350,342,short,long,0.50606207873,FALSE
S001,10,20,2,mullerlyer,long,625,350,342,short,short,0.58398950765,TRUE
S001,10,20,2,mullerlyer,long,626,350,356,long,short,0.457140140481,FALSE
S001,10,20,2,mullerlyer,long,627,350,338,short,short,0.430371367598,TRUE
S001,10,20,2,mullerlyer,long,628,350,336,short,long,0.5615984835,FALSE
S001,10,20,2,mullerlyer,long,629,350,362,long,long,0.552363646244,TRUE
S001,10,20,2,mullerlyer,long,630,350,366,long,long,0.621400046484,TRUE
S001,10,20,2,mullerlyer,long,631,350,338,short,short,0.635090208249,TRUE
S001,10,20,2,mullerlyer,long,632,350,344,short,short,0.55804478869,TRUE
S001,10,20,2,mullerlyer,long,633,350,364,long,long,0.384142546236,TRUE
S001,10,20,2,mullerlyer,long,634,350,344,short,short,0.449525640755,TRUE
S001,10,20,2,mullerlyer,long,635,350,340,short,short,1.65067026071,TRUE
S001,10,20,2,mullerlyer,long,636,350,344,short,long,0.577144728621,FALSE
S001,10,20,2,mullerlyer,long,637,350,364,long,long,0.447581718681,TRUE
S001,10,20,2,mullerlyer,long,638,350,354,long,long,0.94309832201,TRUE
S001,10,20,2,mullerlyer,long,639,350,344,short,long,1.31986030324,FALSE
S001,10,20,2,mullerlyer,long,640,350,358,long,short,1.11042382934,FALSE
S001,10,20,2,mullerlyer,long,641,350,364,long,long,0.53965087884,TRUE
S001,10,20,2,mullerlyer,long,642,350,362,long,long,0.551435453637,TRUE
S001,10,20,2,mullerlyer,long,643,350,346,short,short,0.567891478438,TRUE
S001,10,20,2,mullerlyer,long,644,350,344,short,short,0.487961568298,TRUE
S001,10,20,2,mullerlyer,long,645,350,360,long,long,0.528465780631,TRUE
S001,10,20,2,mullerlyer,long,646,350,340,short,long,0.668502727225,FALSE
S001,10,20,2,mullerlyer,long,647,350,338,short,short,0.645276782509,TRUE
S001,10,20,2,mullerlyer,long,648,350,360,long,long,0.443922375933,TRUE
S001,10,20,2,mullerlyer,long,649,350,362,long,long,0.576821144077,TRUE
S001,10,20,2,mullerlyer,short,650,350,354,long,short,1.24982537905,FALSE
S001,10,20,2,mullerlyer,short,651,350,334,short,long,1.0402301314,FALSE
S001,10,20,2,mullerlyer,short,652,350,358,long,long,0.575045956854,TRUE
S001,10,20,2,mullerlyer,short,653,350,366,long,long,1.29939509009,TRUE
S001,10,20,2,mullerlyer,short,654,350,344,short,short,0.540266957249,TRUE
S001,10,20,2,mullerlyer,short,655,350,366,long,long,1.00705818787,TRUE
S001,10,20,2,mullerlyer,short,656,350,358,long,short,0.402072812558,FALSE
S001,10,20,2,mullerlyer,short,657,350,340,short,short,0.381814971219,TRUE
S001,10,20,2,mullerlyer,short,658,350,362,long,long,0.652809178693,TRUE
S001,10,20,2,mullerlyer,short,659,350,356,long,long,0.79192004564,TRUE
S001,10,20,2,mullerlyer,short,660,350,342,short,short,0.653228148234,TRUE
S001,10,20,2,mullerlyer,short,661,350,364,long,short,0.367365351702,FALSE
S001,10,20,2,mullerlyer,short,662,350,334,short,short,0.962180150866,TRUE
S001,10,20,2,mullerlyer,short,663,350,360,long,long,0.374004570029,TRUE
S001,10,20,2,mullerlyer,short,664,350,360,long,long,0.469539284431,TRUE
S001,10,20,2,mullerlyer,short,665,350,356,long,short,1.13297241985,FALSE
S001,10,20,2,mullerlyer,short,666,350,360,long,short,0.494901732325,FALSE
S001,10,20,2,mullerlyer,short,667,350,344,short,long,0.832550129948,FALSE
S001,10,20,2,mullerlyer,short,668,350,340,short,short,0.442503071337,TRUE
S001,10,20,2,mullerlyer,short,669,350,342,short,long,0.725360636785,FALSE
S001,10,20,2,mullerlyer,short,670,350,358,long,long,1.07574987398,TRUE
S001,10,20,2,mullerlyer,short,671,350,364,long,long,0.624169229888,TRUE
S001,10,20,2,mullerlyer,short,672,350,362,long,long,0.476707044303,TRUE
S001,10,20,2,mullerlyer,short,673,350,346,short,short,0.821292285587,TRUE
S001,10,20,2,mullerlyer,short,674,350,344,short,short,0.506698381172,TRUE
S001,10,20,2,mullerlyer,short,675,350,358,long,long,0.530031483086,TRUE
S001,10,20,2,mullerlyer,short,676,350,360,long,long,0.384154922138,TRUE
S001,10,20,2,mullerlyer,short,677,350,364,long,long,0.585546154567,TRUE
S001,10,20,2,mullerlyer,short,678,350,342,short,long,0.486244336515,FALSE
S001,10,20,2,mullerlyer,short,679,350,336,short,short,0.478039113885,TRUE
S001,10,20,2,mullerlyer,short,680,350,342,short,short,1.63078641307,TRUE
S001,10,20,2,mullerlyer,short,681,350,344,short,long,1.034824881,FALSE
S001,10,20,2,mullerlyer,short,682,350,364,long,long,0.564872060346,TRUE
S001,10,20,2,mullerlyer,short,683,350,362,long,long,0.422786147443,TRUE
S001,10,20,2,mullerlyer,short,684,350,364,long,short,1.50418063986,FALSE
S001,10,20,2,mullerlyer,short,685,350,340,short,short,1.0667993806,TRUE
S001,10,20,2,mullerlyer,short,686,350,344,short,long,0.75452490122,FALSE
S001,10,20,2,mullerlyer,short,687,350,364,long,long,0.5357047774,TRUE
S001,10,20,2,mullerlyer,short,688,350,354,long,short,0.78885534986,FALSE
S001,10,20,2,mullerlyer,short,689,350,344,short,short,0.52984493901,TRUE
S001,10,20,2,mullerlyer,short,690,350,356,long,long,0.783001850348,TRUE
S001,10,20,2,mullerlyer,short,691,350,340,short,short,0.488199125235,TRUE
S001,10,20,2,mullerlyer,short,692,350,340,short,long,0.692216765423,FALSE
S001,10,20,2,mullerlyer,short,693,350,366,long,long,0.376699498021,TRUE
S001,10,20,2,mullerlyer,short,694,350,364,long,long,0.516191603101,TRUE
S001,10,20,2,mullerlyer,short,695,350,336,short,short,0.611492080932,TRUE
S001,10,20,2,mullerlyer,short,696,350,340,short,short,1.06739976275,TRUE
S001,10,20,2,mullerlyer,short,697,350,338,short,short,0.522137770948,TRUE
S001,10,20,2,mullerlyer,short,698,350,338,short,short,0.815603295008,TRUE
S001,10,20,2,mullerlyer,short,699,350,342,short,long,0.417419534002,FALSE
S001,10,20,2,mullerlyer,short,700,350,342,short,long,1.00611158233,FALSE
S001,10,20,2,mullerlyer,short,701,350,362,long,long,0.514273036533,TRUE
S001,10,20,2,mullerlyer,short,702,350,360,long,long,0.478082580466,TRUE
S001,10,20,2,mullerlyer,short,703,350,336,short,short,0.450261252261,TRUE
S001,10,20,2,mullerlyer,short,704,350,354,long,long,0.357809646563,TRUE
S001,10,20,2,mullerlyer,short,705,350,334,short,long,0.621419666817,FALSE
S001,10,20,2,mullerlyer,short,706,350,360,long,long,0.394895695299,TRUE
S001,10,20,2,mullerlyer,short,707,350,358,long,long,0.445783590761,TRUE
S001,10,20,2,mullerlyer,short,708,350,358,long,short,0.381998496781,FALSE
S001,10,20,2,mullerlyer,short,709,350,358,long,long,0.765105089515,TRUE
S001,10,20,2,mullerlyer,short,710,350,336,short,short,0.563862066052,TRUE
S001,10,20,2,mullerlyer,short,711,350,340,short,short,0.648716075693,TRUE
S001,10,20,2,mullerlyer,short,712,350,360,long,long,0.880177428167,TRUE
S001,10,20,2,mullerlyer,short,713,350,346,short,long,0.422318881701,FALSE
S001,10,20,2,mullerlyer,short,714,350,354,long,long,0.911968704062,TRUE
S001,10,20,2,mullerlyer,short,715,350,340,short,short,0.828330551272,TRUE
S001,10,20,2,mullerlyer,short,716,350,338,short,long,0.713254288552,FALSE
S001,10,20,2,mullerlyer,short,717,350,354,long,short,0.651090739506,FALSE
S001,10,20,2,mullerlyer,short,718,350,342,short,long,0.6157457688,FALSE
S001,10,20,2,mullerlyer,short,719,350,338,short,short,0.740324007136,TRUE
S001,10,20,2,mullerlyer,short,720,350,342,short,short,0.539221344507,TRUE
S001,10,20,2,mullerlyer,short,721,350,356,long,long,0.600504997148,TRUE
S001,10,20,2,mullerlyer,short,722,350,338,short,long,0.566965096939,FALSE
S001,10,20,2,mullerlyer,short,723,350,336,short,long,1.03006257377,FALSE
S001,10,20,2,mullerlyer,short,724,350,362,long,long,0.786597502483,TRUE
S001,10,20,2,mullerlyer,short,725,350,360,long,long,0.845604291117,TRUE
S001,10,20,2,mullerlyer,short,726,350,340,short,short,1.28303294103,TRUE
S001,10,20,2,mullerlyer,short,727,350,362,long,long,0.463188635904,TRUE
S001,10,20,2,mullerlyer,short,728,350,346,short,short,0.943111603465,TRUE
S001,10,20,2,mullerlyer,short,729,350,358,long,long,0.514786485517,TRUE
S001,10,20,2,mullerlyer,short,730,350,366,long,long,0.75863943566,TRUE
S001,10,20,2,mullerlyer,short,731,350,338,short,short,0.525341922008,TRUE
S001,10,20,2,mullerlyer,short,732,350,344,short,short,1.55773991892,TRUE
S001,10,20,2,mullerlyer,short,733,350,364,long,long,1.03386439031,TRUE
S001,10,20,2,mullerlyer,short,734,350,344,short,short,0.598801650522,TRUE
S001,10,20,2,mullerlyer,short,735,350,342,short,short,0.508870200943,TRUE
S001,10,20,2,mullerlyer,short,736,350,340,short,long,0.633259480393,FALSE
S001,10,20,2,mullerlyer,short,737,350,340,short,long,0.995150457758,FALSE
S001,10,20,2,mullerlyer,short,738,350,360,long,long,0.631518704215,TRUE
S001,10,20,2,mullerlyer,short,739,350,342,short,short,0.565622160711,TRUE
S001,10,20,2,mullerlyer,short,740,350,362,long,long,0.909102324556,TRUE
S001,10,20,2,mullerlyer,short,741,350,358,long,long,0.721884517747,TRUE
S001,10,20,2,mullerlyer,short,742,350,362,long,long,0.515294803028,TRUE
S001,10,20,2,mullerlyer,short,743,350,340,short,short,0.689373024761,TRUE
S001,10,20,2,mullerlyer,short,744,350,342,short,long,0.516949853451,FALSE
S001,10,20,2,mullerlyer,short,745,350,358,long,long,0.652748506591,TRUE
S001,10,20,2,mullerlyer,short,746,350,346,short,long,0.452850834166,FALSE
S001,10,20,2,mullerlyer,short,747,350,338,short,short,0.63203305875,TRUE
S001,10,20,2,mullerlyer,short,748,350,360,long,long,0.70742040937,TRUE
S001,10,20,2,mullerlyer,short,749,350,356,long,short,0.626314184896,FALSE
S002,10,20,2,payoff,long,50,350,336,short,short,1.34163826749,TRUE
S002,10,20,2,payoff,long,51,350,340,short,short,1.46940556433,TRUE
S002,10,20,2,payoff,long,52,350,360,long,short,1.25086374736,FALSE
S002,10,20,2,payoff,long,53,350,346,short,long,0.745250521448,FALSE
S002,10,20,2,payoff,long,54,350,354,long,long,0.872252927202,TRUE
S002,10,20,2,payoff,long,55,350,342,short,short,1.01531080114,TRUE
S002,10,20,2,payoff,long,56,350,356,long,short,0.7791140062,FALSE
S002,10,20,2,payoff,long,57,350,338,short,short,0.690609709347,TRUE
S002,10,20,2,payoff,long,58,350,336,short,short,0.826404136569,TRUE
S002,10,20,2,payoff,long,59,350,362,long,long,0.650864954768,TRUE
S002,10,20,2,payoff,long,60,350,356,long,short,0.853864752527,FALSE
S002,10,20,2,payoff,long,61,350,340,short,short,0.591495340926,TRUE
S002,10,20,2,payoff,long,62,350,340,short,short,0.635386022475,TRUE
S002,10,20,2,payoff,long,63,350,366,long,long,0.514027329613,TRUE
S002,10,20,2,payoff,long,64,350,364,long,long,0.604798227529,TRUE
S002,10,20,2,payoff,long,65,350,342,short,long,1.33835955918,FALSE
S002,10,20,2,payoff,long,66,350,364,long,long,0.639327596147,TRUE
S002,10,20,2,payoff,long,67,350,334,short,long,1.63399841226,FALSE
S002,10,20,2,payoff,long,68,350,360,long,long,0.703964514367,TRUE
S002,10,20,2,payoff,long,69,350,360,long,long,0.654434647695,TRUE
S002,10,20,2,payoff,long,70,350,354,long,short,1.06621861879,FALSE
S002,10,20,2,payoff,long,71,350,334,short,short,0.598142407384,TRUE
S002,10,20,2,payoff,long,72,350,358,long,long,0.742497939866,TRUE
S002,10,20,2,payoff,long,73,350,366,long,long,0.804284476695,TRUE
S002,10,20,2,payoff,long,74,350,344,short,short,2.62756505649,TRUE
S002,10,20,2,payoff,long,75,350,340,short,short,0.895050544992,TRUE
S002,10,20,2,payoff,long,76,350,358,long,short,0.593679234747,FALSE
S002,10,20,2,payoff,long,77,350,366,long,long,0.68260008633,TRUE
S002,10,20,2,payoff,long,78,350,356,long,short,0.994753523359,FALSE
S002,10,20,2,payoff,long,79,350,358,long,long,0.643570115519,TRUE
S002,10,20,2,payoff,long,80,350,340,short,long,0.835980971297,FALSE
S002,10,20,2,payoff,long,81,350,338,short,long,0.692345354057,FALSE
S002,10,20,2,payoff,long,82,350,354,long,long,0.472542100703,TRUE
S002,10,20,2,payoff,long,83,350,342,short,long,0.543267962414,FALSE
S002,10,20,2,payoff,long,84,350,338,short,long,0.622637636626,FALSE
S002,10,20,2,payoff,long,85,350,356,long,short,1.34453000251,FALSE
S002,10,20,2,payoff,long,86,350,360,long,long,0.49726009617,TRUE
S002,10,20,2,payoff,long,87,350,344,short,short,0.884914983594,TRUE
S002,10,20,2,payoff,long,88,350,340,short,short,0.742767794885,TRUE
S002,10,20,2,payoff,long,89,350,342,short,long,0.412194488799,FALSE
S002,10,20,2,payoff,long,90,350,366,long,long,0.768426358859,TRUE
S002,10,20,2,payoff,long,91,350,358,long,long,0.721258780098,TRUE
S002,10,20,2,payoff,long,92,350,340,short,long,0.744663118909,FALSE
S002,10,20,2,payoff,long,93,350,362,long,long,0.617460585772,TRUE
S002,10,20,2,payoff,long,94,350,356,long,long,0.594300444627,TRUE
S002,10,20,2,payoff,long,95,350,342,short,short,0.630667785528,TRUE
S002,10,20,2,payoff,long,96,350,340,short,short,0.656794520796,TRUE
S002,10,20,2,payoff,long,97,350,340,short,long,0.737937571123,FALSE
S002,10,20,2,payoff,long,98,350,360,long,long,0.670785628258,TRUE
S002,10,20,2,payoff,long,99,350,342,short,short,0.825784435946,TRUE
S002,10,20,2,payoff,long,150,350,336,short,long,1.14903694357,FALSE
S002,10,20,2,payoff,long,151,350,340,short,long,0.528462460268,FALSE
S002,10,20,2,payoff,long,152,350,338,short,long,0.497952844798,FALSE
S002,10,20,2,payoff,long,153,350,338,short,long,0.480460262792,FALSE
S002,10,20,2,payoff,long,154,350,342,short,long,0.478848678948,FALSE
S002,10,20,2,payoff,long,155,350,364,long,long,0.507885260301,TRUE
S002,10,20,2,payoff,long,156,350,356,long,long,0.53604888783,TRUE
S002,10,20,2,payoff,long,157,350,364,long,long,0.828446462152,TRUE
S002,10,20,2,payoff,long,158,350,342,short,short,0.749786138387,TRUE
S002,10,20,2,payoff,long,159,350,334,short,short,0.940972081778,TRUE
S002,10,20,2,payoff,long,160,350,358,long,long,0.67321794566,TRUE
S002,10,20,2,payoff,long,161,350,356,long,long,0.86583375844,TRUE
S002,10,20,2,payoff,long,162,350,340,short,short,0.682435275545,TRUE
S002,10,20,2,payoff,long,163,350,334,short,short,1.46959059914,TRUE
S002,10,20,2,payoff,long,164,350,360,long,long,0.776303469177,TRUE
S002,10,20,2,payoff,long,165,350,344,short,short,0.638902589582,TRUE
S002,10,20,2,payoff,long,166,350,338,short,short,0.436633875558,TRUE
S002,10,20,2,payoff,long,167,350,362,long,long,0.414913564893,TRUE
S002,10,20,2,payoff,long,168,350,342,short,long,0.626839104227,FALSE
S002,10,20,2,payoff,long,169,350,360,long,long,0.613132944348,TRUE
S002,10,20,2,payoff,long,170,350,360,long,long,1.14832608387,TRUE
S002,10,20,2,payoff,long,171,350,340,short,long,0.523568847743,FALSE
S002,10,20,2,payoff,long,172,350,362,long,long,0.359206312313,TRUE
S002,10,20,2,payoff,long,173,350,346,short,short,0.932256126825,TRUE
S002,10,20,2,payoff,long,174,350,358,long,short,0.537320587161,FALSE
S002,10,20,2,payoff,long,175,350,362,long,short,1.08724104936,FALSE
S002,10,20,2,payoff,long,176,350,360,long,long,0.50647138903,TRUE
S002,10,20,2,payoff,long,177,350,338,short,short,0.785566378599,TRUE
S002,10,20,2,payoff,long,178,350,338,short,short,0.480823691702,TRUE
S002,10,20,2,payoff,long,179,350,336,short,short,0.618803522001,TRUE
S002,10,20,2,payoff,long,180,350,358,long,long,0.88676774659,TRUE
S002,10,20,2,payoff,long,181,350,340,short,long,0.762993639994,FALSE
S002,10,20,2,payoff,long,182,350,336,short,long,0.588533878275,FALSE
S002,10,20,2,payoff,long,183,350,344,short,long,0.506421583572,FALSE
S002,10,20,2,payoff,long,184,350,338,short,short,0.934518803824,TRUE
S002,10,20,2,payoff,long,185,350,360,long,short,0.881010839478,FALSE
S002,10,20,2,payoff,long,186,350,360,long,long,0.59628994624,TRUE
S002,10,20,2,payoff,long,187,350,342,short,long,0.476521405782,FALSE
S002,10,20,2,payoff,long,188,350,338,short,long,0.52611526492,FALSE
S002,10,20,2,payoff,long,189,350,336,short,long,0.694568790392,FALSE
S002,10,20,2,payoff,long,190,350,358,long,long,0.983912837432,TRUE
S002,10,20,2,payoff,long,191,350,360,long,long,0.453387223843,TRUE
S002,10,20,2,payoff,long,192,350,364,long,long,0.710616410445,TRUE
S002,10,20,2,payoff,long,193,350,342,short,short,0.487973944199,TRUE
S002,10,20,2,payoff,long,194,350,336,short,short,0.484783376448,TRUE
S002,10,20,2,payoff,long,195,350,358,long,long,0.849078599048,TRUE
S002,10,20,2,payoff,long,196,350,346,short,short,1.08944637462,TRUE
S002,10,20,2,payoff,long,197,350,338,short,short,0.893248191156,TRUE
S002,10,20,2,payoff,long,198,350,360,long,long,0.379803736315,TRUE
S002,10,20,2,payoff,long,199,350,356,long,long,0.527652593355,TRUE
S002,10,20,2,payoff,long,200,350,334,short,long,0.638736873244,FALSE
S002,10,20,2,payoff,long,201,350,360,long,long,0.606566774025,TRUE
S002,10,20,2,payoff,long,202,350,358,long,long,0.440764106263,TRUE
S002,10,20,2,payoff,long,203,350,358,long,long,1.03788776567,TRUE
S002,10,20,2,payoff,long,204,350,358,long,long,0.782575334527,TRUE
S002,10,20,2,payoff,long,205,350,358,long,long,0.645442196995,TRUE
S002,10,20,2,payoff,long,206,350,364,long,long,0.68635360667,TRUE
S002,10,20,2,payoff,long,207,350,362,long,short,0.745403560033,FALSE
S002,10,20,2,payoff,long,208,350,346,short,short,0.563230593228,TRUE
S002,10,20,2,payoff,long,209,350,344,short,long,0.84998898243,FALSE
S002,10,20,2,payoff,long,210,350,340,short,short,1.00762234786,TRUE
S002,10,20,2,payoff,long,211,350,344,short,long,0.635825216051,FALSE
S002,10,20,2,payoff,long,212,350,364,long,long,0.487481624805,TRUE
S002,10,20,2,payoff,long,213,350,354,long,long,0.534617509184,TRUE
S002,10,20,2,payoff,long,214,350,344,short,short,0.688760870418,TRUE
S002,10,20,2,payoff,long,215,350,342,short,long,1.90726888004,FALSE
S002,10,20,2,payoff,long,216,350,362,long,long,0.598212738727,TRUE
S002,10,20,2,payoff,long,217,350,360,long,long,0.51478950402799994,TRUE
S002,10,20,2,payoff,long,218,350,336,short,short,0.875542804017,TRUE
S002,10,20,2,payoff,long,219,350,354,long,short,0.994042361805,FALSE
S002,10,20,2,payoff,long,220,350,342,short,long,0.802596826336,FALSE
S002,10,20,2,payoff,long,221,350,344,short,long,0.946265949066,FALSE
S002,10,20,2,payoff,long,222,350,364,long,long,0.472560815481,TRUE
S002,10,20,2,payoff,long,223,350,362,long,short,0.756985592639,FALSE
S002,10,20,2,payoff,long,224,350,364,long,long,0.594222868855,TRUE
S002,10,20,2,payoff,long,225,350,360,long,short,1.08279810075,FALSE
S002,10,20,2,payoff,long,226,350,340,short,short,0.383761308102,TRUE
S002,10,20,2,payoff,long,227,350,338,short,short,0.492892006677,TRUE
S002,10,20,2,payoff,long,228,350,360,long,long,1.13886033041,TRUE
S002,10,20,2,payoff,long,229,350,362,long,long,0.692483601931,TRUE
S002,10,20,2,payoff,long,230,350,366,long,long,0.90807512474,TRUE
S002,10,20,2,payoff,long,231,350,338,short,short,0.591240578467,TRUE
S002,10,20,2,payoff,long,232,350,344,short,short,0.472166899595,TRUE
S002,10,20,2,payoff,long,233,350,364,long,long,0.654501960524,TRUE
S002,10,20,2,payoff,long,234,350,344,short,short,0.775876349652,TRUE
S002,10,20,2,payoff,long,235,350,336,short,long,1.21164300656,FALSE
S002,10,20,2,payoff,long,236,350,362,long,long,0.524669397415,TRUE
S002,10,20,2,payoff,long,237,350,340,short,short,0.646006055135,TRUE
S002,10,20,2,payoff,long,238,350,346,short,short,0.563649864619,TRUE
S002,10,20,2,payoff,long,239,350,356,long,long,0.519303689528,TRUE
S002,10,20,2,payoff,long,240,350,362,long,long,1.0641150174,TRUE
S002,10,20,2,payoff,long,241,350,362,long,short,0.703852829402,FALSE
S002,10,20,2,payoff,long,242,350,338,short,short,0.439363818297,TRUE
S002,10,20,2,payoff,long,243,350,356,long,short,0.448194476726,FALSE
S002,10,20,2,payoff,long,244,350,336,short,short,1.8888402573,TRUE
S002,10,20,2,payoff,long,245,350,362,long,long,0.438776113907,TRUE
S002,10,20,2,payoff,long,246,350,358,long,long,0.363559912946,TRUE
S002,10,20,2,payoff,long,247,350,362,long,long,0.806572207348,TRUE
S002,10,20,2,payoff,long,248,350,340,short,short,0.441602045345,TRUE
S002,10,20,2,payoff,long,249,350,342,short,short,0.592391235447,TRUE
S002,10,20,2,payoff,short,250,350,358,long,long,0.666199904012,TRUE
S002,10,20,2,payoff,short,251,350,356,long,long,0.508947474863,TRUE
S002,10,20,2,payoff,short,252,350,340,short,short,0.694208379994,TRUE
S002,10,20,2,payoff,short,253,350,334,short,short,0.578119104468,TRUE
S002,10,20,2,payoff,short,254,350,360,long,long,0.734196124833,TRUE
S002,10,20,2,payoff,short,255,350,356,long,long,1.02615058152,TRUE
S002,10,20,2,payoff,short,256,350,360,long,long,0.730468865553,TRUE
S002,10,20,2,payoff,short,257,350,344,short,short,0.561585805746,TRUE
S002,10,20,2,payoff,short,258,350,340,short,short,0.929739894775,TRUE
S002,10,20,2,payoff,short,259,350,342,short,short,0.54581920921,TRUE
S002,10,20,2,payoff,short,260,350,340,short,short,1.31913706763,TRUE
S002,10,20,2,payoff,short,261,350,344,short,short,1.03381518855,TRUE
S002,10,20,2,payoff,short,262,350,364,long,short,0.884021805734,FALSE
S002,10,20,2,payoff,short,263,350,354,long,long,1.12530751097,TRUE
S002,10,20,2,payoff,short,264,350,344,short,short,0.61946306699,TRUE
S002,10,20,2,payoff,short,265,350,362,long,long,1.42903990172,TRUE
S002,10,20,2,payoff,short,266,350,362,long,long,1.24938739288,TRUE
S002,10,20,2,payoff,short,267,350,338,short,short,0.528974701847,TRUE
S002,10,20,2,payoff,short,268,350,356,long,short,1.51443120659,FALSE
S002,10,20,2,payoff,short,269,350,336,short,short,0.508275855824,TRUE
S002,10,20,2,payoff,short,270,350,342,short,short,1.05000890461,TRUE
S002,10,20,2,payoff,short,271,350,362,long,long,0.546783020263,TRUE
S002,10,20,2,payoff,short,272,350,360,long,long,0.481147578096,TRUE
S002,10,20,2,payoff,short,273,350,336,short,short,0.503192982562,TRUE
S002,10,20,2,payoff,short,274,350,354,long,short,0.579685108772,FALSE
S002,10,20,2,payoff,short,275,350,354,long,long,0.852003235846,TRUE
S002,10,20,2,payoff,short,276,350,334,short,short,0.621318244795,TRUE
S002,10,20,2,payoff,short,277,350,358,long,long,0.76107597898,TRUE
S002,10,20,2,payoff,short,278,350,366,long,long,1.05132014646,TRUE
S002,10,20,2,payoff,short,279,350,344,short,short,0.42638240328,TRUE
S002,10,20,2,payoff,short,280,350,336,short,short,1.55197184332,TRUE
S002,10,20,2,payoff,short,281,350,362,long,short,0.797805541385,FALSE
S002,10,20,2,payoff,short,282,350,340,short,short,0.536362813133,TRUE
S002,10,20,2,payoff,short,283,350,346,short,short,0.693403946403,TRUE
S002,10,20,2,payoff,short,284,350,356,long,long,0.604340621028,TRUE
S002,10,20,2,payoff,short,285,350,342,short,short,0.474196547425,TRUE
S002,10,20,2,payoff,short,286,350,356,long,long,0.483683732331,TRUE
S002,10,20,2,payoff,short,287,350,338,short,short,0.402847966579,TRUE
S002,10,20,2,payoff,short,288,350,336,short,short,0.418470881918,TRUE
S002,10,20,2,payoff,short,289,350,362,long,long,0.56921388878,TRUE
S002,10,20,2,payoff,short,290,350,340,short,short,0.43533651887,TRUE
S002,10,20,2,payoff,short,291,350,358,long,short,0.744438239724,FALSE
S002,10,20,2,payoff,short,292,350,366,long,long,0.990479309606,TRUE
S002,10,20,2,payoff,short,293,350,356,long,short,0.617057312497,FALSE
S002,10,20,2,payoff,short,294,350,358,long,short,0.65481407472,FALSE
S002,10,20,2,payoff,short,295,350,342,short,short,0.695481588583,TRUE
S002,10,20,2,payoff,short,296,350,364,long,long,0.577543172275,TRUE
S002,10,20,2,payoff,short,297,350,334,short,short,0.518456091208,TRUE
S002,10,20,2,payoff,short,298,350,360,long,long,0.587256141918,TRUE
S002,10,20,2,payoff,short,299,350,360,long,long,0.58161786235,TRUE
S002,10,20,2,payoff,short,350,350,358,long,long,1.17773394227,TRUE
S002,10,20,2,payoff,short,351,350,346,short,short,0.521004621342,TRUE
S002,10,20,2,payoff,short,352,350,338,short,short,0.466672603075,TRUE
S002,10,20,2,payoff,short,353,350,360,long,long,0.665651138432,TRUE
S002,10,20,2,payoff,short,354,350,356,long,long,0.614239832895,TRUE
S002,10,20,2,payoff,short,355,350,362,long,long,0.64600696069,TRUE
S002,10,20,2,payoff,short,356,350,360,long,long,0.559490052492,TRUE
S002,10,20,2,payoff,short,357,350,338,short,short,0.719630292585,TRUE
S002,10,20,2,payoff,short,358,350,338,short,short,0.372584963581,TRUE
S002,10,20,2,payoff,short,359,350,336,short,short,0.368968785562,TRUE
S002,10,20,2,payoff,short,360,350,334,short,short,0.647882060678,TRUE
S002,10,20,2,payoff,short,361,350,360,long,long,0.473445843358,TRUE
S002,10,20,2,payoff,short,362,350,358,long,long,0.808952304483,TRUE
S002,10,20,2,payoff,short,363,350,358,long,long,0.603989568021,TRUE
S002,10,20,2,payoff,short,364,350,358,long,long,0.64754308172,TRUE
S002,10,20,2,payoff,short,365,350,362,long,long,0.894699190133,TRUE
S002,10,20,2,payoff,short,366,350,358,long,short,0.586768953995,FALSE
S002,10,20,2,payoff,short,367,350,362,long,short,0.601816540845,FALSE
S002,10,20,2,payoff,short,368,350,340,short,short,0.401145525508,TRUE
S002,10,20,2,payoff,short,369,350,342,short,short,0.55668947656,TRUE
S002,10,20,2,payoff,short,370,350,340,short,short,0.590519153971,TRUE
S002,10,20,2,payoff,short,371,350,338,short,short,0.402476689537,TRUE
S002,10,20,2,payoff,short,372,350,354,long,long,0.69882972269,TRUE
S002,10,20,2,payoff,short,373,350,342,short,short,0.684339353254,TRUE
S002,10,20,2,payoff,short,374,350,338,short,short,0.679500979507,TRUE
S002,10,20,2,payoff,short,375,350,342,short,long,1.50362493171,FALSE
S002,10,20,2,payoff,short,376,350,340,short,short,0.527001802052,TRUE
S002,10,20,2,payoff,short,377,350,340,short,short,0.465470933234,TRUE
S002,10,20,2,payoff,short,378,350,360,long,long,0.370552900941,TRUE
S002,10,20,2,payoff,short,379,350,342,short,short,0.423182176287,TRUE
S002,10,20,2,payoff,short,380,350,360,long,short,0.875816583104,FALSE
S002,10,20,2,payoff,short,381,350,360,long,long,0.673313934358,TRUE
S002,10,20,2,payoff,short,382,350,342,short,short,0.576797901531,TRUE
S002,10,20,2,payoff,short,383,350,338,short,short,1.03626199481,TRUE
S002,10,20,2,payoff,short,384,350,336,short,short,0.731542550462,TRUE
S002,10,20,2,payoff,short,385,350,366,long,long,1.35463477507,TRUE
S002,10,20,2,payoff,short,386,350,338,short,short,0.825449682905,TRUE
S002,10,20,2,payoff,short,387,350,344,short,short,2.95783500207,TRUE
S002,10,20,2,payoff,short,388,350,364,long,long,0.574785157371,TRUE
S002,10,20,2,payoff,short,389,350,344,short,short,0.272615148708,TRUE
S002,10,20,2,payoff,short,390,350,366,long,long,0.95477543776,TRUE
S002,10,20,2,payoff,short,391,350,358,long,short,0.931020951495,FALSE
S002,10,20,2,payoff,short,392,350,340,short,short,0.64293743529,TRUE
S002,10,20,2,payoff,short,393,350,362,long,long,0.814813350278,TRUE
S002,10,20,2,payoff,short,394,350,356,long,short,0.325757269333,FALSE
S002,10,20,2,payoff,short,395,350,360,long,long,0.919014516026,TRUE
S002,10,20,2,payoff,short,396,350,340,short,short,0.584323656989,TRUE
S002,10,20,2,payoff,short,397,350,338,short,short,0.38264143995,TRUE
S002,10,20,2,payoff,short,398,350,360,long,long,0.820785779182,TRUE
S002,10,20,2,payoff,short,399,350,362,long,long,0.710688552896,TRUE
S002,10,20,2,payoff,short,400,350,364,long,long,0.591153041605,TRUE
S002,10,20,2,payoff,short,401,350,356,long,short,0.664003030586,FALSE
S002,10,20,2,payoff,short,402,350,364,long,long,0.630774339023,TRUE
S002,10,20,2,payoff,short,403,350,342,short,short,0.847062232673,TRUE
S002,10,20,2,payoff,short,404,350,334,short,long,0.364423207533,FALSE
S002,10,20,2,payoff,short,405,350,342,short,short,0.387058127497,TRUE
S002,10,20,2,payoff,short,406,350,344,short,short,0.551238042917,TRUE
S002,10,20,2,payoff,short,407,350,364,long,long,0.427679458116,TRUE
S002,10,20,2,payoff,short,408,350,362,long,long,0.716327738017,TRUE
S002,10,20,2,payoff,short,409,350,364,long,long,0.684464017821,TRUE
S002,10,20,2,payoff,short,410,350,358,long,short,0.762659490656,FALSE
S002,10,20,2,payoff,short,411,350,360,long,short,1.29342054822,FALSE
S002,10,20,2,payoff,short,412,350,364,long,short,0.564140372908,FALSE
S002,10,20,2,payoff,short,413,350,342,short,short,0.347992236386,TRUE
S002,10,20,2,payoff,short,414,350,336,short,short,0.358513865536,TRUE
S002,10,20,2,payoff,short,415,350,356,long,long,0.675058936458,TRUE
S002,10,20,2,payoff,short,416,350,340,short,short,0.765284691011,TRUE
S002,10,20,2,payoff,short,417,350,340,short,short,0.462325039467,TRUE
S002,10,20,2,payoff,short,418,350,366,long,short,1.17600222163,FALSE
S002,10,20,2,payoff,short,419,350,364,long,long,0.642350636454,TRUE
S002,10,20,2,payoff,short,420,350,358,long,long,0.64954646849,TRUE
S002,10,20,2,payoff,short,421,350,340,short,short,0.397117622379,TRUE
S002,10,20,2,payoff,short,422,350,336,short,short,0.633581555681,TRUE
S002,10,20,2,payoff,short,423,350,344,short,short,0.600621813583,TRUE
S002,10,20,2,payoff,short,424,350,338,short,short,0.503083712409,TRUE
S002,10,20,2,payoff,short,425,350,360,long,short,0.784506880698,FALSE
S002,10,20,2,payoff,short,426,350,340,short,short,0.408128854264,TRUE
S002,10,20,2,payoff,short,427,350,362,long,long,0.525323810933,TRUE
S002,10,20,2,payoff,short,428,350,346,short,short,0.575813866444,TRUE
S002,10,20,2,payoff,short,429,350,358,long,short,0.579310813218,FALSE
S002,10,20,2,payoff,short,430,350,336,short,short,0.745155740155,TRUE
S002,10,20,2,payoff,short,431,350,340,short,short,0.580016239597,TRUE
S002,10,20,2,payoff,short,432,350,360,long,long,1.75208564124,TRUE
S002,10,20,2,payoff,short,433,350,346,short,short,1.09641944043,TRUE
S002,10,20,2,payoff,short,434,350,354,long,long,0.609840954576,TRUE
S002,10,20,2,payoff,short,435,350,358,long,long,1.13370229618,TRUE
S002,10,20,2,payoff,short,436,350,364,long,long,0.608878954628,TRUE
S002,10,20,2,payoff,short,437,350,362,long,long,0.443030103625,TRUE
S002,10,20,2,payoff,short,438,350,346,short,short,0.93732058716,TRUE
S002,10,20,2,payoff,short,439,350,344,short,short,0.788667900233,TRUE
S002,10,20,2,payoff,short,440,350,344,short,short,0.646918551476,TRUE
S002,10,20,2,payoff,short,441,350,338,short,short,0.8824727051,TRUE
S002,10,20,2,payoff,short,442,350,362,long,long,0.648607711091,TRUE
S002,10,20,2,payoff,short,443,350,342,short,short,0.643237475437,TRUE
S002,10,20,2,payoff,short,444,350,360,long,long,0.570881616957,TRUE
S002,10,20,2,payoff,short,445,350,336,short,short,0.655714798861,TRUE
S002,10,20,2,payoff,short,446,350,340,short,long,0.572819200153,FALSE
S002,10,20,2,payoff,short,447,350,338,short,long,0.700328716015,FALSE
S002,10,20,2,payoff,short,448,350,338,short,short,0.470998735243,TRUE
S002,10,20,2,payoff,short,449,350,342,short,long,0.507641364489,FALSE
S003,8,21,1,mullerlyer,short,50,350,342,short,short,11.1147541874,TRUE
S003,8,21,1,mullerlyer,short,51,350,342,short,short,4.11928135253,TRUE
S003,8,21,1,mullerlyer,short,52,350,360,long,long,2.38383465796,TRUE
S003,8,21,1,mullerlyer,short,53,350,340,short,long,4.55322935564,FALSE
S003,8,21,1,mullerlyer,short,54,350,362,long,long,1.22220840414,TRUE
S003,8,21,1,mullerlyer,short,55,350,360,long,short,8.08708046449,FALSE
S003,8,21,1,mullerlyer,short,56,350,344,short,short,1.84630217122,TRUE
S003,8,21,1,mullerlyer,short,57,350,344,short,short,2.595474646,TRUE
S003,8,21,1,mullerlyer,short,58,350,360,long,long,0.991651699875,TRUE
S003,8,21,1,mullerlyer,short,59,350,362,long,long,1.22358001624,TRUE
S003,8,21,1,mullerlyer,short,60,350,354,long,long,1.31030369255,TRUE
S003,8,21,1,mullerlyer,short,61,350,358,long,long,13.3410167558,TRUE
S003,8,21,1,mullerlyer,short,62,350,338,short,short,1.37846925192,TRUE
S003,8,21,1,mullerlyer,short,63,350,356,long,long,0.984757719089,TRUE
S003,8,21,1,mullerlyer,short,64,350,344,short,short,16.74894669,TRUE
S003,8,21,1,mullerlyer,short,65,350,342,short,short,2.20194241282,TRUE
S003,8,21,1,mullerlyer,short,66,350,342,short,long,1.48324906652,FALSE
S003,8,21,1,mullerlyer,short,67,350,340,short,long,2.2122186369,FALSE
S003,8,21,1,mullerlyer,short,68,350,354,long,long,0.856838892931,TRUE
S003,8,21,1,mullerlyer,short,69,350,344,short,short,1.12205023409,TRUE
S003,8,21,1,mullerlyer,short,70,350,356,long,short,6.48321857955,FALSE
S003,8,21,1,mullerlyer,short,71,350,346,short,short,0.857692226426,TRUE
S003,8,21,1,mullerlyer,short,72,350,342,short,short,2.80485497557,TRUE
S003,8,21,1,mullerlyer,short,73,350,360,long,long,1.03565165158,TRUE
S003,8,21,1,mullerlyer,short,74,350,340,short,long,0.896803697076,FALSE
S003,8,21,1,mullerlyer,short,75,350,354,long,long,1.21357485458,TRUE
S003,8,21,1,mullerlyer,short,76,350,344,short,short,0.772365819572,TRUE
S003,8,21,1,mullerlyer,short,77,350,346,short,short,4.57273920957,TRUE
S003,8,21,1,mullerlyer,short,78,350,344,short,short,0.727817404142,TRUE
S003,8,21,1,mullerlyer,short,79,350,358,long,long,1.47606832705,TRUE
S003,8,21,1,mullerlyer,short,80,350,356,long,long,4.78336678852,TRUE
S003,8,21,1,mullerlyer,short,81,350,360,long,long,1.2160455071,TRUE
S003,8,21,1,mullerlyer,short,82,350,358,long,long,1.56979223578,TRUE
S003,8,21,1,mullerlyer,short,83,350,360,long,long,2.39812007039,TRUE
S003,8,21,1,mullerlyer,short,84,350,360,long,short,1.26361183136,FALSE
S003,8,21,1,mullerlyer,short,85,350,342,short,short,1.10802743224,TRUE
S003,8,21,1,mullerlyer,short,86,350,340,short,short,1.28776657239,TRUE
S003,8,21,1,mullerlyer,short,87,350,340,short,short,6.10023091621,TRUE
S003,8,21,1,mullerlyer,short,88,350,344,short,long,1.34606733094,FALSE
S003,8,21,1,mullerlyer,short,89,350,338,short,short,1.24477057795,TRUE
S003,8,21,1,mullerlyer,short,90,350,354,long,long,1.13939068306,TRUE
S003,8,21,1,mullerlyer,short,91,350,360,long,long,1.49321921344,TRUE
S003,8,21,1,mullerlyer,short,92,350,360,long,long,2.13960711041,TRUE
S003,8,21,1,mullerlyer,short,93,350,358,long,short,3.14281518553,FALSE
S003,8,21,1,mullerlyer,short,94,350,358,long,long,1.10506476219,TRUE
S003,8,21,1,mullerlyer,short,95,350,342,short,short,1.03430207462,TRUE
S003,8,21,1,mullerlyer,short,96,350,346,short,short,8.33522543761,TRUE
S003,8,21,1,mullerlyer,short,97,350,338,short,short,0.912489699323,TRUE
S003,8,21,1,mullerlyer,short,98,350,340,short,short,2.11139367742,TRUE
S003,8,21,1,mullerlyer,short,99,350,358,long,long,1.20385041459,TRUE
S003,8,21,1,mullerlyer,short,150,350,354,long,short,10.35326105,FALSE
S003,8,21,1,mullerlyer,short,151,350,340,short,short,1.66894041154,TRUE
S003,8,21,1,mullerlyer,short,152,350,336,short,short,7.93586596597,TRUE
S003,8,21,1,mullerlyer,short,153,350,344,short,long,2.9182245713,FALSE
S003,8,21,1,mullerlyer,short,154,350,360,long,long,0.897011370736,TRUE
S003,8,21,1,mullerlyer,short,155,350,340,short,short,1.59014817878,TRUE
S003,8,21,1,mullerlyer,short,156,350,356,long,long,0.880060913583,TRUE
S003,8,21,1,mullerlyer,short,157,350,358,long,long,1.69398983968,TRUE
S003,8,21,1,mullerlyer,short,158,350,338,short,short,1.14865479989,TRUE
S003,8,21,1,mullerlyer,short,159,350,344,short,long,1.25623277561,FALSE
S003,8,21,1,mullerlyer,short,160,350,362,long,long,1.10773463653,TRUE
S003,8,21,1,mullerlyer,short,161,350,340,short,short,1.15865060415,TRUE
S003,8,21,1,mullerlyer,short,162,350,358,long,long,1.38477975423,TRUE
S003,8,21,1,mullerlyer,short,163,350,342,short,short,5.37861776274,TRUE
S003,8,21,1,mullerlyer,short,164,350,356,long,long,1.29537262028,TRUE
S003,8,21,1,mullerlyer,short,165,350,344,short,long,8.54333708635,FALSE
S003,8,21,1,mullerlyer,short,166,350,338,short,short,9.68498622049,TRUE
S003,8,21,1,mullerlyer,short,167,350,340,short,short,1.8202004896,TRUE
S003,8,21,1,mullerlyer,short,168,350,338,short,short,5.29823266091,TRUE
S003,8,21,1,mullerlyer,short,169,350,356,long,long,1.50721303756,TRUE
S003,8,21,1,mullerlyer,short,170,350,352,long,long,1.06749846811,TRUE
S003,8,21,1,mullerlyer,short,171,350,358,long,long,1.49992031127,TRUE
S003,8,21,1,mullerlyer,short,172,350,340,short,short,2.25200987657,TRUE
S003,8,21,1,mullerlyer,short,173,350,358,long,long,1.28328891089,TRUE
S003,8,21,1,mullerlyer,short,174,350,356,long,long,10.4140167648,TRUE
S003,8,21,1,mullerlyer,short,175,350,346,short,long,1.58423038495,FALSE
S003,8,21,1,mullerlyer,short,176,350,346,short,long,9.18702582941,FALSE
S003,8,21,1,mullerlyer,short,177,350,358,long,long,0.665902278673,TRUE
S003,8,21,1,mullerlyer,short,178,350,354,long,long,3.66386659382,TRUE
S003,8,21,1,mullerlyer,short,179,350,340,short,short,1.92484477299,TRUE
S003,8,21,1,mullerlyer,short,180,350,344,short,short,1.32808273139,TRUE
S003,8,21,1,mullerlyer,short,181,350,348,short,short,1.46531547984,TRUE
S003,8,21,1,mullerlyer,short,182,350,342,short,short,2.8156138598,TRUE
S003,8,21,1,mullerlyer,short,183,350,344,short,long,3.18511933689,FALSE
S003,8,21,1,mullerlyer,short,184,350,360,long,long,0.75216110405,TRUE
S003,8,21,1,mullerlyer,short,185,350,356,long,short,2.59630473695,FALSE
S003,8,21,1,mullerlyer,short,186,350,362,long,long,4.79922394043,TRUE
S003,8,21,1,mullerlyer,short,187,350,344,short,short,1.05027393001,TRUE
S003,8,21,1,mullerlyer,short,188,350,356,long,long,0.716797116715,TRUE
S003,8,21,1,mullerlyer,short,189,350,358,long,short,2.00963448832,FALSE
S003,8,21,1,mullerlyer,short,190,350,362,long,short,2.97728539131,FALSE
S003,8,21,1,mullerlyer,short,191,350,346,short,short,2.66450168886,TRUE
S003,8,21,1,mullerlyer,short,192,350,358,long,short,6.19790485045,FALSE
S003,8,21,1,mullerlyer,short,193,350,356,long,long,0.872832481607,TRUE
S003,8,21,1,mullerlyer,short,194,350,356,long,long,2.56615009856,TRUE
S003,8,21,1,mullerlyer,short,195,350,356,long,long,2.95243035537,TRUE
S003,8,21,1,mullerlyer,short,196,350,342,short,short,1.55866116895,TRUE
S003,8,21,1,mullerlyer,short,197,350,342,short,short,1.20608230276,TRUE
S003,8,21,1,mullerlyer,short,198,350,342,short,long,2.21773949633,FALSE
S003,8,21,1,mullerlyer,short,199,350,358,long,long,2.07231722152,TRUE
S003,8,21,1,mullerlyer,long,200,350,342,short,long,10.3413569421,FALSE
S003,8,21,1,mullerlyer,long,201,350,342,short,long,1.04897234741,FALSE
S003,8,21,1,mullerlyer,long,202,350,360,long,long,1.5625007169,TRUE
S003,8,21,1,mullerlyer,long,203,350,340,short,long,4.19205195464,FALSE
S003,8,21,1,mullerlyer,long,204,350,362,long,long,4.87989640465,TRUE
S003,8,21,1,mullerlyer,long,205,350,344,short,short,1.56600913402,TRUE
S003,8,21,1,mullerlyer,long,206,350,338,short,long,1.04305847764,FALSE
S003,8,21,1,mullerlyer,long,207,350,340,short,long,3.59477012518,FALSE
S003,8,21,1,mullerlyer,long,208,350,338,short,short,4.9078593011,TRUE
S003,8,21,1,mullerlyer,long,209,350,356,long,long,1.87053448801,TRUE
S003,8,21,1,mullerlyer,long,210,350,342,short,short,3.15757390073,TRUE
S003,8,21,1,mullerlyer,long,211,350,346,short,long,2.48007721355,FALSE
S003,8,21,1,mullerlyer,long,212,350,338,short,short,6.20226448811,TRUE
S003,8,21,1,mullerlyer,long,213,350,340,short,long,1.31014371138,FALSE
S003,8,21,1,mullerlyer,long,214,350,358,long,long,2.32719317574,TRUE
S003,8,21,1,mullerlyer,long,215,350,358,long,long,0.92358756252,TRUE
S003,8,21,1,mullerlyer,long,216,350,354,long,short,1.73767767719,FALSE
S003,8,21,1,mullerlyer,long,217,350,342,short,short,4.38614955522,TRUE
S003,8,21,1,mullerlyer,long,218,350,356,long,long,0.43686750843,TRUE
S003,8,21,1,mullerlyer,long,219,350,360,long,long,0.542705311676,TRUE
S003,8,21,1,mullerlyer,long,220,350,354,long,long,0.511107824284,TRUE
S003,8,21,1,mullerlyer,long,221,350,344,short,short,0.89587339151,TRUE
S003,8,21,1,mullerlyer,long,222,350,346,short,long,0.395323720379,FALSE
S003,8,21,1,mullerlyer,long,223,350,344,short,long,0.517811336929,FALSE
S003,8,21,1,mullerlyer,long,224,350,358,long,long,0.48167068632,TRUE
S003,8,21,1,mullerlyer,long,225,350,356,long,long,0.457998001748,TRUE
S003,8,21,1,mullerlyer,long,226,350,360,long,long,0.577240415467,TRUE
S003,8,21,1,mullerlyer,long,227,350,358,long,short,1.488731289,FALSE
S003,8,21,1,mullerlyer,long,228,350,360,long,long,0.560575811451,TRUE
S003,8,21,1,mullerlyer,long,229,350,360,long,long,0.668208422252,TRUE
S003,8,21,1,mullerlyer,long,230,350,354,long,short,2.05188853237,FALSE
S003,8,21,1,mullerlyer,long,231,350,360,long,long,0.968777713719,TRUE
S003,8,21,1,mullerlyer,long,232,350,360,long,long,0.477595694392,TRUE
S003,8,21,1,mullerlyer,long,233,350,358,long,long,0.693641503341,TRUE
S003,8,21,1,mullerlyer,long,234,350,358,long,long,2.0014075324,TRUE
S003,8,21,1,mullerlyer,long,235,350,356,long,short,2.51723057512,FALSE
S003,8,21,1,mullerlyer,long,236,350,362,long,short,1.31289961333,FALSE
S003,8,21,1,mullerlyer,long,237,350,344,short,short,0.948792745909,TRUE
S003,8,21,1,mullerlyer,long,238,350,356,long,long,0.681735886192,TRUE
S003,8,21,1,mullerlyer,long,239,350,358,long,long,0.524080183768,TRUE
S003,8,21,1,mullerlyer,long,240,350,342,short,short,1.48941256728,TRUE
S003,8,21,1,mullerlyer,long,241,350,342,short,short,1.25662759705,TRUE
S003,8,21,1,mullerlyer,long,242,350,340,short,short,1.40767547368,TRUE
S003,8,21,1,mullerlyer,long,243,350,354,long,long,0.469863170827,TRUE
S003,8,21,1,mullerlyer,long,244,350,344,short,short,0.828240599596,TRUE
S003,8,21,1,mullerlyer,long,245,350,340,short,short,0.993066778552,TRUE
S003,8,21,1,mullerlyer,long,246,350,356,long,long,0.646299152704,TRUE
S003,8,21,1,mullerlyer,long,247,350,358,long,short,0.878045150912,FALSE
S003,8,21,1,mullerlyer,long,248,350,338,short,short,0.793210157895,TRUE
S003,8,21,1,mullerlyer,long,249,350,344,short,short,2.97071590062,TRUE
S003,8,21,1,mullerlyer,long,250,350,358,long,long,2.4768277848,TRUE
S003,8,21,1,mullerlyer,long,251,350,340,short,short,2.78691474815,TRUE
S003,8,21,1,mullerlyer,long,252,350,346,short,long,0.823534134852,FALSE
S003,8,21,1,mullerlyer,long,253,350,364,long,long,0.674217073312,TRUE
S003,8,21,1,mullerlyer,long,254,350,340,short,short,1.03349854659,TRUE
S003,8,21,1,mullerlyer,long,255,350,338,short,long,0.888574326342,FALSE
S003,8,21,1,mullerlyer,long,256,350,360,long,long,1.58053482005,TRUE
S003,8,21,1,mullerlyer,long,257,350,340,short,long,2.93407236582,FALSE
S003,8,21,1,mullerlyer,long,258,350,356,long,long,0.837900443417,TRUE
S003,8,21,1,mullerlyer,long,259,350,362,long,long,1.06088430343,TRUE
S003,8,21,1,mullerlyer,long,260,350,362,long,long,0.882887146872,TRUE
S003,8,21,1,mullerlyer,long,261,350,340,short,short,0.903988360616,TRUE
S003,8,21,1,mullerlyer,long,262,350,358,long,long,0.722463166599,TRUE
S003,8,21,1,mullerlyer,long,263,350,342,short,short,2.80974224921,TRUE
S003,8,21,1,mullerlyer,long,264,350,356,long,long,0.479357902012,TRUE
S003,8,21,1,mullerlyer,long,265,350,354,long,long,1.02285255472,TRUE
S003,8,21,1,mullerlyer,long,266,350,358,long,long,0.504359637656,TRUE
S003,8,21,1,mullerlyer,long,267,350,338,short,short,1.70260799483,TRUE
S003,8,21,1,mullerlyer,long,268,350,356,long,long,1.78186749334,TRUE
S003,8,21,1,mullerlyer,long,269,350,344,short,short,1.8660667876100001,TRUE
S003,8,21,1,mullerlyer,long,270,350,360,long,long,0.585018518574,TRUE
S003,8,21,1,mullerlyer,long,271,350,344,short,long,2.39334568911,FALSE
S003,8,21,1,mullerlyer,long,272,350,344,short,long,1.15299693017,FALSE
S003,8,21,1,mullerlyer,long,273,350,360,long,long,1.08684230385,TRUE
S003,8,21,1,mullerlyer,long,274,350,362,long,short,5.31359296566,FALSE
S003,8,21,1,mullerlyer,long,275,350,340,short,short,2.60567842579,TRUE
S003,8,21,1,mullerlyer,long,276,350,362,long,long,0.723637669827,TRUE
S003,8,21,1,mullerlyer,long,277,350,360,long,long,1.52731814217,TRUE
S003,8,21,1,mullerlyer,long,278,350,338,short,short,1.31541705279,TRUE
S003,8,21,1,mullerlyer,long,279,350,346,short,long,1.57121033297,FALSE
S003,8,21,1,mullerlyer,long,280,350,362,long,long,0.956507762105,TRUE
S003,8,21,1,mullerlyer,long,281,350,346,short,short,0.894289879834,TRUE
S003,8,21,1,mullerlyer,long,282,350,358,long,long,1.149849829,TRUE
S003,8,21,1,mullerlyer,long,283,350,356,long,short,0.815982722033,FALSE
S003,8,21,1,mullerlyer,long,284,350,356,long,short,2.92368324937,FALSE
S003,8,21,1,mullerlyer,long,285,350,344,short,short,4.40142986939,TRUE
S003,8,21,1,mullerlyer,long,286,350,348,short,short,2.09402847665,TRUE
S003,8,21,1,mullerlyer,long,287,350,342,short,long,1.24577423338,FALSE
S003,8,21,1,mullerlyer,long,288,350,344,short,long,0.670204262744,FALSE
S003,8,21,1,mullerlyer,long,289,350,360,long,long,0.888804940703,TRUE
S003,8,21,1,mullerlyer,long,290,350,352,long,long,5.11850650037,TRUE
S003,8,21,1,mullerlyer,long,291,350,358,long,long,1.34702540682,TRUE
S003,8,21,1,mullerlyer,long,292,350,340,short,short,4.3251716779,TRUE
S003,8,21,1,mullerlyer,long,293,350,358,long,short,3.46918551476,FALSE
S003,8,21,1,mullerlyer,long,294,350,356,long,short,1.66165130747,FALSE
S003,8,21,1,mullerlyer,long,295,350,344,short,short,6.65685428734,TRUE
S003,8,21,1,mullerlyer,long,296,350,354,long,long,2.22035896151,TRUE
S003,8,21,1,mullerlyer,long,297,350,342,short,short,0.701777602033,TRUE
S003,8,21,1,mullerlyer,long,298,350,358,long,long,1.50169187628,TRUE
S003,8,21,1,mullerlyer,long,299,350,342,short,short,2.40224486777,TRUE
S003,8,21,1,mullerlyer,long,300,350,358,long,long,1.63731605939,TRUE
S003,8,21,1,mullerlyer,long,301,350,354,long,long,4.39503545243,TRUE
S003,8,21,1,mullerlyer,long,302,350,358,long,long,1.28792806281,TRUE
S003,8,21,1,mullerlyer,long,303,350,356,long,long,0.88001201368,TRUE
S003,8,21,1,mullerlyer,long,304,350,358,long,long,2.02466275669,TRUE
S003,8,21,1,mullerlyer,long,305,350,356,long,short,0.904505733666,FALSE
S003,8,21,1,mullerlyer,long,306,350,346,short,short,1.45957940046,TRUE
S003,8,21,1,mullerlyer,long,307,350,342,short,long,0.952711982587,FALSE
S003,8,21,1,mullerlyer,long,308,350,360,long,long,0.77371901874,TRUE
S003,8,21,1,mullerlyer,long,309,350,340,short,short,3.81007519115,TRUE
S003,8,21,1,mullerlyer,long,310,350,346,short,short,1.81973141276,TRUE
S003,8,21,1,mullerlyer,long,311,350,346,short,short,1.0811358059,TRUE
S003,8,21,1,mullerlyer,long,312,350,358,long,long,5.08012550975,TRUE
S003,8,21,1,mullerlyer,long,313,350,354,long,long,0.5829544597,TRUE
S003,8,21,1,mullerlyer,long,314,350,340,short,short,0.845719598296,TRUE
S003,8,21,1,mullerlyer,long,315,350,342,short,short,1.32004292325,TRUE
S003,8,21,1,mullerlyer,long,316,350,342,short,short,2.54241191226,TRUE
S003,8,21,1,mullerlyer,long,317,350,362,long,long,1.88209297622,TRUE
S003,8,21,1,mullerlyer,long,318,350,342,short,short,5.08280685444,TRUE
S003,8,21,1,mullerlyer,long,319,350,344,short,short,4.49958555823,TRUE
S003,8,21,1,mullerlyer,long,320,350,344,short,short,14.6722022162,TRUE
S003,8,21,1,mullerlyer,long,321,350,342,short,short,1.79645536073,TRUE
S003,8,21,1,mullerlyer,long,322,350,360,long,long,1.84087911159,TRUE
S003,8,21,1,mullerlyer,long,323,350,346,short,long,1.85234734627,FALSE
S003,8,21,1,mullerlyer,long,324,350,360,long,long,1.72861066924,TRUE
S003,8,21,1,mullerlyer,long,325,350,340,short,long,2.52013196937,FALSE
S003,8,21,1,mullerlyer,long,326,350,338,short,short,3.33438538557,TRUE
S003,8,21,1,mullerlyer,long,327,350,362,long,long,0.95352154765,TRUE
S003,8,21,1,mullerlyer,long,328,350,342,short,short,0.91840175798300006,TRUE
S003,8,21,1,mullerlyer,long,329,350,356,long,long,1.87609006034,TRUE
S003,8,21,1,mullerlyer,long,330,350,342,short,short,1.86295560674,TRUE
S003,8,21,1,mullerlyer,long,331,350,340,short,short,1.04145051602,TRUE
S003,8,21,1,mullerlyer,long,332,350,340,short,long,0.725252574037,FALSE
S003,8,21,1,mullerlyer,long,333,350,344,short,long,1.83495045112,FALSE
S003,8,21,1,mullerlyer,long,334,350,338,short,long,0.836673116224,FALSE
S003,8,21,1,mullerlyer,long,335,350,360,long,short,3.16194017912,FALSE
S003,8,21,1,mullerlyer,long,336,350,342,short,short,1.42751132697,TRUE
S003,8,21,1,mullerlyer,long,337,350,344,short,short,0.836099900691,TRUE
S003,8,21,1,mullerlyer,long,338,350,358,long,long,0.730742342788,TRUE
S003,8,21,1,mullerlyer,long,339,350,356,long,long,0.932796742421,TRUE
S003,8,21,1,mullerlyer,long,340,350,354,long,short,1.30638928549,FALSE
S003,8,21,1,mullerlyer,long,341,350,340,short,short,9.60210812915,TRUE
S003,8,21,1,mullerlyer,long,342,350,336,short,short,3.83363105929,TRUE
S003,8,21,1,mullerlyer,long,343,350,344,short,long,0.577485216836,FALSE
S003,8,21,1,mullerlyer,long,344,350,360,long,long,0.717176543742,TRUE
S003,8,21,1,mullerlyer,long,345,350,356,long,long,0.923279674244,TRUE
S003,8,21,1,mullerlyer,long,346,350,342,short,long,3.54270410427,FALSE
S003,8,21,1,mullerlyer,long,347,350,342,short,long,0.835235700553,FALSE
S003,8,21,1,mullerlyer,long,348,350,342,short,long,7.74222265152,FALSE
S003,8,21,1,mullerlyer,long,349,350,358,long,long,0.790213378652,TRUE
S003,8,21,1,mullerlyer,short,450,350,344,short,short,3.48490562621,TRUE
S003,8,21,1,mullerlyer,short,451,350,342,short,short,3.72212328209,TRUE
S003,8,21,1,mullerlyer,short,452,350,360,long,long,0.954504073485,TRUE
S003,8,21,1,mullerlyer,short,453,350,346,short,long,3.28034012599,FALSE
S003,8,21,1,mullerlyer,short,454,350,360,long,long,0.574189604846,TRUE
S003,8,21,1,mullerlyer,short,455,350,358,long,short,1.38003465252,FALSE
S003,8,21,1,mullerlyer,short,456,350,354,long,long,0.681875039616,TRUE
S003,8,21,1,mullerlyer,short,457,350,342,short,long,0.851201820766,FALSE
S003,8,21,1,mullerlyer,short,458,350,356,long,long,0.577072586169,TRUE
S003,8,21,1,mullerlyer,short,459,350,360,long,long,0.739792748929,TRUE
S003,8,21,1,mullerlyer,short,460,350,340,short,short,0.732895447782,TRUE
S003,8,21,1,mullerlyer,short,461,350,338,short,short,1.11766131686,TRUE
S003,8,21,1,mullerlyer,short,462,350,362,long,long,0.77445704506,TRUE
S003,8,21,1,mullerlyer,short,463,350,342,short,short,1.08591290384,TRUE
S003,8,21,1,mullerlyer,short,464,350,356,long,long,0.506764184745,TRUE
S003,8,21,1,mullerlyer,short,465,350,338,short,short,0.647128036246,TRUE
S003,8,21,1,mullerlyer,short,466,350,360,long,long,0.650769871623,TRUE
S003,8,21,1,mullerlyer,short,467,350,340,short,short,0.922115735808,TRUE
S003,8,21,1,mullerlyer,short,468,350,356,long,long,1.88657033587,TRUE
S003,8,21,1,mullerlyer,short,469,350,362,long,long,0.544266788213,TRUE
S003,8,21,1,mullerlyer,short,470,350,340,short,short,0.629455852748,TRUE
S003,8,21,1,mullerlyer,short,471,350,362,long,long,0.500824053921,TRUE
S003,8,21,1,mullerlyer,short,472,350,360,long,long,5.4366317626,TRUE
S003,8,21,1,mullerlyer,short,473,350,338,short,short,0.699210055267,TRUE
S003,8,21,1,mullerlyer,short,474,350,346,short,long,0.728033831489,FALSE
S003,8,21,1,mullerlyer,short,475,350,342,short,short,0.577790690302,TRUE
S003,8,21,1,mullerlyer,short,476,350,342,short,short,1.88101295244,TRUE
S003,8,21,1,mullerlyer,short,477,350,362,long,long,1.09230369858,TRUE
S003,8,21,1,mullerlyer,short,478,350,342,short,short,0.717835485029,TRUE
S003,8,21,1,mullerlyer,short,479,350,344,short,short,0.792563592513,TRUE
S003,8,21,1,mullerlyer,short,480,350,360,long,short,1.36754887726,FALSE
S003,8,21,1,mullerlyer,short,481,350,342,short,short,2.49720214073,TRUE
S003,8,21,1,mullerlyer,short,482,350,344,short,short,2.94345541204,TRUE
S003,8,21,1,mullerlyer,short,483,350,358,long,long,0.63217462699,TRUE
S003,8,21,1,mullerlyer,short,484,350,356,long,long,1.73512190263,TRUE
S003,8,21,1,mullerlyer,short,485,350,358,long,short,0.721937039867,FALSE
S003,8,21,1,mullerlyer,short,486,350,354,long,short,2.17420922518,FALSE
S003,8,21,1,mullerlyer,short,487,350,358,long,long,1.76451889438,TRUE
S003,8,21,1,mullerlyer,short,488,350,356,long,short,0.65227369457,FALSE
S003,8,21,1,mullerlyer,short,489,350,358,long,long,0.61471585232,TRUE
S003,8,21,1,mullerlyer,short,490,350,344,short,short,0.563964997327,TRUE
S003,8,21,1,mullerlyer,short,491,350,354,long,long,2.12824995699,TRUE
S003,8,21,1,mullerlyer,short,492,350,342,short,short,0.522215346722,TRUE
S003,8,21,1,mullerlyer,short,493,350,358,long,short,2.72474727504,FALSE
S003,8,21,1,mullerlyer,short,494,350,342,short,short,1.1539175765,TRUE
S003,8,21,1,mullerlyer,short,495,350,358,long,long,2.86788061179,TRUE
S003,8,21,1,mullerlyer,short,496,350,340,short,short,0.895616817943,TRUE
S003,8,21,1,mullerlyer,short,497,350,346,short,long,1.89999275557,FALSE
S003,8,21,1,mullerlyer,short,498,350,364,long,long,0.702228265956,TRUE
S003,8,21,1,mullerlyer,short,499,350,340,short,short,1.74288672428,TRUE
S004,8,21,1,payoff,long,0,350,358,long,long,3.4468273924,TRUE
S004,8,21,1,payoff,long,1,350,354,long,long,2.71785510536,TRUE
S004,8,21,1,payoff,long,2,350,342,short,short,9.06071919079,TRUE
S004,8,21,1,payoff,long,3,350,356,long,long,1.18909200124,TRUE
S004,8,21,1,payoff,long,4,350,360,long,long,1.37485397945,TRUE
S004,8,21,1,payoff,long,5,350,342,short,long,1.89123755996,FALSE
S004,8,21,1,payoff,long,6,350,342,short,long,7.87773394227,FALSE
S004,8,21,1,payoff,long,7,350,340,short,long,2.77934039464,FALSE
S004,8,21,1,payoff,long,8,350,354,long,long,2.52455771245,TRUE
S004,8,21,1,payoff,long,9,350,344,short,long,0.984792130133,FALSE
S004,8,21,1,payoff,long,10,350,358,long,long,1.16558533486,TRUE
S004,8,21,1,payoff,long,11,350,354,long,short,1.63714008011,FALSE
S004,8,21,1,payoff,long,12,350,358,long,long,0.961101636338,TRUE
S004,8,21,1,payoff,long,13,350,356,long,long,1.90313502712,TRUE
S004,8,21,1,payoff,long,14,350,358,long,long,1.29248179082,TRUE
S004,8,21,1,payoff,long,15,350,344,short,long,0.79714418529,FALSE
S004,8,21,1,payoff,long,16,350,348,short,long,7.0082568392,FALSE
S004,8,21,1,payoff,long,17,350,342,short,long,2.1849267558,FALSE
S004,8,21,1,payoff,long,18,350,344,short,long,4.72536456085,FALSE
S004,8,21,1,payoff,long,19,350,360,long,long,0.742369351232,TRUE
S004,8,21,1,payoff,long,20,350,358,long,short,4.7650296267,FALSE
S004,8,21,1,payoff,long,21,350,340,short,short,1.02343241098,TRUE
S004,8,21,1,payoff,long,22,350,346,short,short,4.49375801792,TRUE
S004,8,21,1,payoff,long,23,350,364,long,long,0.933291778478,TRUE
S004,8,21,1,payoff,long,24,350,340,short,long,3.14823522664,FALSE
S004,8,21,1,payoff,long,25,350,356,long,long,1.95734147527,TRUE
S004,8,21,1,payoff,long,26,350,342,short,short,1.47188859274,TRUE
S004,8,21,1,payoff,long,27,350,342,short,short,3.05035784466,TRUE
S004,8,21,1,payoff,long,28,350,342,short,short,2.42165601635,TRUE
S004,8,21,1,payoff,long,29,350,358,long,long,0.839886926518,TRUE
S004,8,21,1,payoff,long,30,350,344,short,short,1.58477915053,TRUE
S004,8,21,1,payoff,long,31,350,354,long,short,3.25778851697,FALSE
S004,8,21,1,payoff,long,32,350,342,short,short,2.49384736589,TRUE
S004,8,21,1,payoff,long,33,350,358,long,long,1.88846898026,TRUE
S004,8,21,1,payoff,long,34,350,342,short,short,0.792975317625,TRUE
S004,8,21,1,payoff,long,35,350,354,long,long,0.496945265313,TRUE
S004,8,21,1,payoff,long,36,350,360,long,long,9.23904536523,TRUE
S004,8,21,1,payoff,long,37,350,360,long,long,0.729108723805,TRUE
S004,8,21,1,payoff,long,38,350,358,long,long,2.72257002194,TRUE
S004,8,21,1,payoff,long,39,350,358,long,long,3.05470571012,TRUE
S004,8,21,1,payoff,long,40,350,342,short,long,2.42014796748,FALSE
S004,8,21,1,payoff,long,41,350,342,short,long,3.95678123934,FALSE
S004,8,21,1,payoff,long,42,350,362,long,long,0.959446585912,TRUE
S004,8,21,1,payoff,long,43,350,342,short,short,0.837694580867,TRUE
S004,8,21,1,payoff,long,44,350,344,short,short,1.96231719134,TRUE
S004,8,21,1,payoff,long,45,350,342,short,short,1.41135987008,TRUE
S004,8,21,1,payoff,long,46,350,340,short,short,1.90556674082,TRUE
S004,8,21,1,payoff,long,47,350,340,short,short,4.54428912521,TRUE
S004,8,21,1,payoff,long,48,350,344,short,short,0.757910464879,TRUE
S004,8,21,1,payoff,long,49,350,338,short,short,1.05992169978,TRUE
S004,8,21,1,payoff,short,350,350,344,short,short,4.24009158167,TRUE
S004,8,21,1,payoff,short,351,350,342,short,short,6.68146512561,TRUE
S004,8,21,1,payoff,short,352,350,360,long,long,0.870992698219,TRUE
S004,8,21,1,payoff,short,353,350,346,short,short,4.06911488157,TRUE
S004,8,21,1,payoff,short,354,350,360,long,long,0.9397619601,TRUE
S004,8,21,1,payoff,short,355,350,358,long,long,0.814180066347,TRUE
S004,8,21,1,payoff,short,356,350,340,short,short,1.22396457474,TRUE
S004,8,21,1,payoff,short,357,350,346,short,short,0.960402850684,TRUE
S004,8,21,1,payoff,short,358,350,364,long,long,4.92756445279,TRUE
S004,8,21,1,payoff,short,359,350,340,short,long,1.01219871472,FALSE
S004,8,21,1,payoff,short,360,350,352,long,short,1.68033076861,FALSE
S004,8,21,1,payoff,short,361,350,358,long,short,1.90525372107,FALSE
S004,8,21,1,payoff,short,362,350,340,short,short,0.863249911708,TRUE
S004,8,21,1,payoff,short,363,350,358,long,short,5.62086154385,FALSE
S004,8,21,1,payoff,short,364,350,356,long,long,0.720159135981,TRUE
S004,8,21,1,payoff,short,365,350,358,long,long,0.796399518247,TRUE
S004,8,21,1,payoff,short,366,350,354,long,short,1.48582808364,FALSE
S004,8,21,1,payoff,short,367,350,342,short,short,1.16797116717,TRUE
S004,8,21,1,payoff,short,368,350,356,long,long,0.661852944104,TRUE
S004,8,21,1,payoff,short,369,350,360,long,short,1.75543920867,FALSE
S004,8,21,1,payoff,short,370,350,342,short,short,4.01491054638,TRUE
S004,8,21,1,payoff,short,371,350,346,short,short,4.44132404034,TRUE
S004,8,21,1,payoff,short,372,350,338,short,short,0.88269396207,TRUE
S004,8,21,1,payoff,short,373,350,340,short,short,0.960759940714,TRUE
S004,8,21,1,payoff,short,374,350,358,long,long,0.878961269467,TRUE
S004,8,21,1,payoff,short,375,350,356,long,long,0.955048613145,TRUE
S004,8,21,1,payoff,short,376,350,346,short,short,0.951050593289,TRUE
S004,8,21,1,payoff,short,377,350,342,short,short,0.740555527045,TRUE
S004,8,21,1,payoff,short,378,350,360,long,long,3.56521707633,TRUE
S004,8,21,1,payoff,short,379,350,340,short,short,3.76968145637,TRUE
S004,8,21,1,payoff,short,380,350,354,long,long,0.866265103879,TRUE
S004,8,21,1,payoff,short,381,350,360,long,short,1.92191741953,FALSE
S004,8,21,1,payoff,short,382,350,360,long,short,1.85118340784,FALSE
S004,8,21,1,payoff,short,383,350,358,long,short,3.16748458295,FALSE
S004,8,21,1,payoff,short,384,350,358,long,long,1.29114851384,TRUE
S004,8,21,1,payoff,short,385,350,342,short,short,0.690410789372,TRUE
S004,8,21,1,payoff,short,386,350,342,short,short,0.745539091244,TRUE
S004,8,21,1,payoff,short,387,350,360,long,long,2.46293870307,TRUE
S004,8,21,1,payoff,short,388,350,340,short,short,0.965603747783,TRUE
S004,8,21,1,payoff,short,389,350,362,long,long,1.17601761604,TRUE
S004,8,21,1,payoff,short,390,350,360,long,short,4.58552532683,FALSE
S004,8,21,1,payoff,short,391,350,342,short,short,0.607723769881,TRUE
S004,8,21,1,payoff,short,392,350,344,short,short,3.91677840194,TRUE
S004,8,21,1,payoff,short,393,350,358,long,long,0.868261849926,TRUE
S004,8,21,1,payoff,short,394,350,356,long,long,4.81686714621,TRUE
S004,8,21,1,payoff,short,395,350,346,short,short,2.50970512151,TRUE
S004,8,21,1,payoff,short,396,350,346,short,long,0.807672757019,FALSE
S004,8,21,1,payoff,short,397,350,358,long,long,2.52074019964,TRUE
S004,8,21,1,payoff,short,398,350,354,long,long,1.22939880286,TRUE
S004,8,21,1,payoff,short,399,350,340,short,short,4.47322639749,TRUE
S004,8,21,1,payoff,long,400,350,360,long,long,4.73690554169,TRUE
S004,8,21,1,payoff,long,401,350,344,short,short,0.921674127425,TRUE
S004,8,21,1,payoff,long,402,350,344,short,short,1.66125527862,TRUE
S004,8,21,1,payoff,long,403,350,360,long,long,0.645933007134,TRUE
S004,8,21,1,payoff,long,404,350,362,long,long,1.09658908083,TRUE
S004,8,21,1,payoff,long,405,350,340,short,short,1.49733072936,TRUE
S004,8,21,1,payoff,long,406,350,362,long,long,1.12594743562,TRUE
S004,8,21,1,payoff,long,407,350,360,long,long,3.65812809963,TRUE
S004,8,21,1,payoff,long,408,350,338,short,short,1.05988306283,TRUE
S004,8,21,1,payoff,long,409,350,346,short,long,2.78086866754,FALSE
S004,8,21,1,payoff,long,410,350,360,long,short,2.84963883497,FALSE
S004,8,21,1,payoff,long,411,350,342,short,short,0.779943493442,TRUE
S004,8,21,1,payoff,long,412,350,344,short,long,2.27210381268,FALSE
S004,8,21,1,payoff,long,413,350,358,long,long,0.670356093924,TRUE
S004,8,21,1,payoff,long,414,350,356,long,long,1.33720135592,TRUE
S004,8,21,1,payoff,long,415,350,354,long,long,1.36909767604,TRUE
S004,8,21,1,payoff,long,416,350,358,long,long,3.13472013861,TRUE
S004,8,21,1,payoff,long,417,350,338,short,short,0.929297682687,TRUE
S004,8,21,1,payoff,long,418,350,356,long,long,2.11944405036,TRUE
S004,8,21,1,payoff,long,419,350,344,short,long,1.05904210523,FALSE
S004,8,21,1,payoff,long,420,350,356,long,short,1.73116312343,FALSE
S004,8,21,1,payoff,long,421,350,360,long,long,6.35393568757,TRUE
S004,8,21,1,payoff,long,422,350,358,long,long,1.38582989475,TRUE
S004,8,21,1,payoff,long,423,350,360,long,long,1.98599832775,TRUE
S004,8,21,1,payoff,long,424,350,360,long,long,0.694253355832,TRUE
S004,8,21,1,payoff,long,425,350,356,long,short,1.56937115328,FALSE
S004,8,21,1,payoff,long,426,350,362,long,long,0.833116704751,TRUE
S004,8,21,1,payoff,long,427,350,344,short,short,1.0283613401,TRUE
S004,8,21,1,payoff,long,428,350,356,long,long,2.76094376813,TRUE
S004,8,21,1,payoff,long,429,350,358,long,long,0.58167793075,TRUE
S004,8,21,1,payoff,long,430,350,354,long,short,1.31175710633,FALSE
S004,8,21,1,payoff,long,431,350,340,short,short,0.621737516187,TRUE
S004,8,21,1,payoff,long,432,350,336,short,short,2.70218329012,TRUE
S004,8,21,1,payoff,long,433,350,344,short,long,0.728558448969,FALSE
S004,8,21,1,payoff,long,434,350,360,long,long,0.582075167,TRUE
S004,8,21,1,payoff,long,435,350,338,short,short,1.18170600292,TRUE
S004,8,21,1,payoff,long,436,350,360,long,long,0.489023179158,TRUE
S004,8,21,1,payoff,long,437,350,340,short,long,1.50879745479,FALSE
S004,8,21,1,payoff,long,438,350,356,long,long,0.621486677792,TRUE
S004,8,21,1,payoff,long,439,350,362,long,long,0.726978559505,TRUE
S004,8,21,1,payoff,long,440,350,340,short,short,3.77387688695,TRUE
S004,8,21,1,payoff,long,441,350,356,long,long,0.61000123759,TRUE
S004,8,21,1,payoff,long,442,350,358,long,long,1.0332018268,TRUE
S004,8,21,1,payoff,long,443,350,338,short,short,0.99044610597,TRUE
S004,8,21,1,payoff,long,444,350,344,short,long,3.11884366822,FALSE
S004,8,21,1,payoff,long,445,350,342,short,short,6.12163549046,TRUE
S004,8,21,1,payoff,long,446,350,342,short,short,1.13148670798,TRUE
S004,8,21,1,payoff,long,447,350,360,long,long,0.790818288562,TRUE
S004,8,21,1,payoff,long,448,350,340,short,long,3.10235081756,FALSE
S004,8,21,1,payoff,long,449,350,362,long,long,0.689827009046,TRUE
S004,8,21,1,payoff,long,500,350,344,short,long,2.24921835618,FALSE
S004,8,21,1,payoff,long,501,350,338,short,long,0.653721373183,FALSE
S004,8,21,1,payoff,long,502,350,340,short,long,2.03995665416,FALSE
S004,8,21,1,payoff,long,503,350,338,short,long,4.09033985433,FALSE
S004,8,21,1,payoff,long,504,350,356,long,long,3.52367389198,TRUE
S004,8,21,1,payoff,long,505,350,346,short,long,6.28154270139,FALSE
S004,8,21,1,payoff,long,506,350,346,short,long,1.53395705864,FALSE
S004,8,21,1,payoff,long,507,350,358,long,long,3.88488811883,TRUE
S004,8,21,1,payoff,long,508,350,354,long,long,7.13348798179,TRUE
S004,8,21,1,payoff,long,509,350,340,short,short,1.07715951933,TRUE
S004,8,21,1,payoff,long,510,350,352,long,short,1.33236056736,FALSE
S004,8,21,1,payoff,long,511,350,358,long,short,5.5702063757,FALSE
S004,8,21,1,payoff,long,512,350,340,short,short,0.764383363166,TRUE
S004,8,21,1,payoff,long,513,350,358,long,long,0.72533256462,TRUE
S004,8,21,1,payoff,long,514,350,356,long,long,0.836686095827,TRUE
S004,8,21,1,payoff,long,515,350,340,short,short,1.07798357326,TRUE
S004,8,21,1,payoff,long,516,350,338,short,short,0.835566529528,TRUE
S004,8,21,1,payoff,long,517,350,362,long,long,0.65334285171,TRUE
S004,8,21,1,payoff,long,518,350,342,short,short,0.926682745278,TRUE
S004,8,21,1,payoff,long,519,350,356,long,long,1.53313270287,TRUE
S004,8,21,1,payoff,long,520,350,342,short,short,1.22907250165,TRUE
S004,8,21,1,payoff,long,521,350,346,short,short,1.04043780506,TRUE
S004,8,21,1,payoff,long,522,350,338,short,short,1.10723809122,TRUE
S004,8,21,1,payoff,long,523,350,340,short,short,3.1002043533,TRUE
S004,8,21,1,payoff,long,524,350,358,long,short,1.38966250011,FALSE
S004,8,21,1,payoff,long,525,350,354,long,long,3.78513382575,TRUE
S004,8,21,1,payoff,long,526,350,344,short,short,1.38446975299,TRUE
S004,8,21,1,payoff,long,527,350,346,short,long,3.36566441989,FALSE
S004,8,21,1,payoff,long,528,350,344,short,long,2.41808119195,FALSE
S004,8,21,1,payoff,long,529,350,358,long,long,0.731407622952,TRUE
S004,8,21,1,payoff,long,530,350,362,long,long,0.932782555414,TRUE
S004,8,21,1,payoff,long,531,350,346,short,long,1.73896929871,FALSE
S004,8,21,1,payoff,long,532,350,358,long,long,0.688569194874,TRUE
S004,8,21,1,payoff,long,533,350,356,long,long,1.04438843427,TRUE
S004,8,21,1,payoff,long,534,350,356,long,long,1.57918433754,TRUE
S004,8,21,1,payoff,long,535,350,344,short,short,0.748253639569,TRUE
S004,8,21,1,payoff,long,536,350,342,short,short,1.66980008391,TRUE
S004,8,21,1,payoff,long,537,350,360,long,long,0.644064547872,TRUE
S004,8,21,1,payoff,long,538,350,346,short,short,1.6171167772,TRUE
S004,8,21,1,payoff,long,539,350,360,long,long,0.853253503741,TRUE
S004,8,21,1,payoff,long,540,350,362,long,long,0.826219705454,TRUE
S004,8,21,1,payoff,long,541,350,340,short,short,0.501683122591,TRUE
S004,8,21,1,payoff,long,542,350,358,long,long,1.15512920743,TRUE
S004,8,21,1,payoff,long,543,350,342,short,short,1.52124398939,TRUE
S004,8,21,1,payoff,long,544,350,356,long,long,0.97357352644,TRUE
S004,8,21,1,payoff,long,545,350,356,long,long,2.56484549744,TRUE
S004,8,21,1,payoff,long,546,350,346,short,short,0.628335984595,TRUE
S004,8,21,1,payoff,long,547,350,342,short,short,0.826102587165,TRUE
S004,8,21,1,payoff,long,548,350,360,long,long,3.62915943481,TRUE
S004,8,21,1,payoff,long,549,350,340,short,short,0.835087793439,TRUE
S004,8,21,1,payoff,short,600,350,340,short,short,2.47745050394,TRUE
S004,8,21,1,payoff,short,601,350,356,long,short,4.26631460749,FALSE
S004,8,21,1,payoff,short,602,350,358,long,long,0.702652970667,TRUE
S004,8,21,1,payoff,short,603,350,338,short,short,0.649056563907,TRUE
S004,8,21,1,payoff,short,604,350,344,short,short,0.808692712406,TRUE
S004,8,21,1,payoff,short,605,350,338,short,short,0.455183842503,TRUE
S004,8,21,1,payoff,short,606,350,360,long,long,0.525379653413,TRUE
S004,8,21,1,payoff,short,607,350,340,short,short,0.545791137043,TRUE
S004,8,21,1,payoff,short,608,350,356,long,long,1.39571522145,TRUE
S004,8,21,1,payoff,short,609,350,362,long,long,0.868475560612,TRUE
S004,8,21,1,payoff,short,610,350,344,short,short,0.744117673694,TRUE
S004,8,21,1,payoff,short,611,350,348,short,short,0.548173347139,TRUE
S004,8,21,1,payoff,short,612,350,342,short,short,0.529389143616,TRUE
S004,8,21,1,payoff,short,613,350,344,short,short,0.730696763247,TRUE
S004,8,21,1,payoff,short,614,350,360,long,short,0.527844872602,FALSE
S004,8,21,1,payoff,short,615,350,342,short,short,1.06221486376,TRUE
S004,8,21,1,payoff,short,616,350,342,short,short,3.79413955791,TRUE
S004,8,21,1,payoff,short,617,350,340,short,short,1.02273694569,TRUE
S004,8,21,1,payoff,short,618,350,354,long,long,0.509101419004,TRUE
S004,8,21,1,payoff,short,619,350,344,short,long,0.763977071376,FALSE
S004,8,21,1,payoff,short,620,350,354,long,long,3.03060318936,TRUE
S004,8,21,1,payoff,short,621,350,358,long,short,0.815480139696,FALSE
S004,8,21,1,payoff,short,622,350,338,short,short,0.708386031529,TRUE
S004,8,21,1,payoff,short,623,350,356,long,long,0.602461295122,TRUE
S004,8,21,1,payoff,short,624,350,344,short,short,0.656122901757,TRUE
S004,8,21,1,payoff,short,625,350,340,short,short,0.624174059507,TRUE
S004,8,21,1,payoff,short,626,350,362,long,long,0.472759433607,TRUE
S004,8,21,1,payoff,short,627,350,360,long,long,1.04843203366,TRUE
S004,8,21,1,payoff,short,628,350,338,short,short,0.464730190255,TRUE
S004,8,21,1,payoff,short,629,350,346,short,short,1.68743574341,TRUE
S004,8,21,1,payoff,short,630,350,342,short,short,0.876953053077,TRUE
S004,8,21,1,payoff,short,631,350,340,short,long,0.73071879839,FALSE
S004,8,21,1,payoff,short,632,350,340,short,short,0.757776141072,TRUE
S004,8,21,1,payoff,short,633,350,344,short,short,0.553746124984,TRUE
S004,8,21,1,payoff,short,634,350,338,short,short,0.752425223898,TRUE
S004,8,21,1,payoff,short,635,350,360,long,long,0.669489780827,TRUE
S004,8,21,1,payoff,short,636,350,344,short,long,1.52375780663,FALSE
S004,8,21,1,payoff,short,637,350,344,short,long,0.767154659527,FALSE
S004,8,21,1,payoff,short,638,350,360,long,long,0.84599066072,TRUE
S004,8,21,1,payoff,short,639,350,362,long,long,0.683559369616,TRUE
S004,8,21,1,payoff,short,640,350,342,short,short,0.894053228451,TRUE
S004,8,21,1,payoff,short,641,350,342,short,short,1.14012538901,TRUE
S004,8,21,1,payoff,short,642,350,362,long,long,0.590835192233,TRUE
S004,8,21,1,payoff,short,643,350,342,short,short,0.776671124,TRUE
S004,8,21,1,payoff,short,644,350,344,short,short,0.635994554603,TRUE
S004,8,21,1,payoff,short,645,350,356,long,long,0.52268502727,TRUE
S004,8,21,1,payoff,short,646,350,360,long,long,1.48827066398,TRUE
S004,8,21,1,payoff,short,647,350,358,long,short,4.07360642822,FALSE
S004,8,21,1,payoff,short,648,350,360,long,long,0.498694795177,TRUE
S004,8,21,1,payoff,short,649,350,360,long,long,0.509173259601,TRUE
S004,8,21,1,payoff,short,650,350,362,long,long,0.474552430056,TRUE
S004,8,21,1,payoff,short,651,350,346,short,long,1.05404435402,FALSE
S004,8,21,1,payoff,short,652,350,358,long,long,0.894484573892,TRUE
S004,8,21,1,payoff,short,653,350,356,long,long,1.66824434255,TRUE
S004,8,21,1,payoff,short,654,350,356,long,short,0.956170896105,FALSE
S004,8,21,1,payoff,short,655,350,356,long,short,2.61236443105,FALSE
S004,8,21,1,payoff,short,656,350,362,long,long,0.64818813785,TRUE
S004,8,21,1,payoff,short,657,350,344,short,long,0.562657377697,FALSE
S004,8,21,1,payoff,short,658,350,356,long,long,0.693445903726,TRUE
S004,8,21,1,payoff,short,659,350,358,long,long,0.584319129219,TRUE
S004,8,21,1,payoff,short,660,350,362,long,long,0.848974158514,TRUE
S004,8,21,1,payoff,short,661,350,340,short,short,1.21838093024,TRUE
S004,8,21,1,payoff,short,662,350,358,long,short,3.15207990606,FALSE
S004,8,21,1,payoff,short,663,350,342,short,short,0.851259474355,TRUE
S004,8,21,1,payoff,short,664,350,356,long,short,3.03167144095,FALSE
S004,8,21,1,payoff,short,665,350,354,long,long,4.99882066715,TRUE
S004,8,21,1,payoff,short,666,350,344,short,long,0.507019249053,FALSE
S004,8,21,1,payoff,short,667,350,346,short,long,0.787890633255,FALSE
S004,8,21,1,payoff,short,668,350,344,short,long,1.67886950668,FALSE
S004,8,21,1,payoff,short,669,350,358,long,long,0.555092079725,TRUE
S004,8,21,1,payoff,short,670,350,344,short,short,0.517879857165,TRUE
S004,8,21,1,payoff,short,671,350,338,short,short,0.616932949782,TRUE
S004,8,21,1,payoff,short,672,350,340,short,short,0.377609881405,TRUE
S004,8,21,1,payoff,short,673,350,338,short,long,0.489069664254,FALSE
S004,8,21,1,payoff,short,674,350,356,long,long,0.556907715018,TRUE
S004,8,21,1,payoff,short,675,350,358,long,long,0.59617433721,TRUE
S004,8,21,1,payoff,short,676,350,354,long,long,1.1726139413,TRUE
S004,8,21,1,payoff,short,677,350,358,long,short,3.04685546457,FALSE
S004,8,21,1,payoff,short,678,350,356,long,short,0.730346917644,FALSE
S004,8,21,1,payoff,short,679,350,358,long,short,1.28422585718,FALSE
S004,8,21,1,payoff,short,680,350,344,short,short,1.5527385455,TRUE
S004,8,21,1,payoff,short,681,350,354,long,long,0.413777396774,TRUE
S004,8,21,1,payoff,short,682,350,342,short,short,2.56026581021,TRUE
S004,8,21,1,payoff,short,683,350,358,long,long,0.567312225881,TRUE
S004,8,21,1,payoff,short,684,350,342,short,short,0.554042844768,TRUE
S004,8,21,1,payoff,short,685,350,354,long,long,0.414196668167,TRUE
S004,8,21,1,payoff,short,686,350,340,short,short,0.449004343638,TRUE
S004,8,21,1,payoff,short,687,350,336,short,short,0.611572071513,TRUE
S004,8,21,1,payoff,short,688,350,344,short,short,0.586631007973,TRUE
S004,8,21,1,payoff,short,689,350,360,long,long,0.352205778039,TRUE
S004,8,21,1,payoff,short,690,350,356,long,long,0.517104703147,TRUE
S004,8,21,1,payoff,short,691,350,342,short,short,0.757912275989,TRUE
S004,8,21,1,payoff,short,692,350,342,short,short,0.738027824649,TRUE
S004,8,21,1,payoff,short,693,350,342,short,long,0.28784897778,FALSE
S004,8,21,1,payoff,short,694,350,358,long,long,0.559720365,TRUE
S004,8,21,1,payoff,short,695,350,340,short,short,0.555281642311,TRUE
S004,8,21,1,payoff,short,696,350,338,short,short,0.494614369931,TRUE
S004,8,21,1,payoff,short,697,350,362,long,long,0.754988242894,TRUE
S004,8,21,1,payoff,short,698,350,342,short,short,0.459204501207,TRUE
S004,8,21,1,payoff,short,699,350,356,long,long,2.75634234762,TRUE
S005,12,21,1,mullerlyer,long,50,350,342,short,long,1.38070023454,FALSE
S005,12,21,1,mullerlyer,long,51,350,360,long,long,0.690889525456,TRUE
S005,12,21,1,mullerlyer,long,52,350,364,long,long,0.738414496103,TRUE
S005,12,21,1,mullerlyer,long,53,350,370,long,long,0.689654651982,TRUE
S005,12,21,1,mullerlyer,long,54,350,362,long,long,0.712461325307,TRUE
S005,12,21,1,mullerlyer,long,55,350,366,long,long,0.535820688285,TRUE
S005,12,21,1,mullerlyer,long,56,350,364,long,long,0.501440434182,TRUE
S005,12,21,1,mullerlyer,long,57,350,338,short,long,1.34122171277,FALSE
S005,12,21,1,mullerlyer,long,58,350,338,short,long,1.77088644657,FALSE
S005,12,21,1,mullerlyer,long,59,350,364,long,long,0.505009825258,TRUE
S005,12,21,1,mullerlyer,long,60,350,364,long,long,0.471085970257,TRUE
S005,12,21,1,mullerlyer,long,61,350,358,long,long,0.465521644244,TRUE
S005,12,21,1,mullerlyer,long,62,350,334,short,long,1.41532378075,FALSE
S005,12,21,1,mullerlyer,long,63,350,364,long,long,2.11106164104,TRUE
S005,12,21,1,mullerlyer,long,64,350,354,long,long,0.453669152917,TRUE
S005,12,21,1,mullerlyer,long,65,350,334,short,long,2.01365182665,FALSE
S005,12,21,1,mullerlyer,long,66,350,344,short,long,0.773362834261,FALSE
S005,12,21,1,mullerlyer,long,67,350,334,short,long,2.60076066516,FALSE
S005,12,21,1,mullerlyer,long,68,350,334,short,long,0.749065015742,FALSE
S005,12,21,1,mullerlyer,long,69,350,366,long,long,0.815489497083,TRUE
S005,12,21,1,mullerlyer,long,70,350,366,long,long,0.686543772958,TRUE
S005,12,21,1,mullerlyer,long,71,350,362,long,long,0.759049047811,TRUE
S005,12,21,1,mullerlyer,long,72,350,366,long,long,1.09217903401,TRUE
S005,12,21,1,mullerlyer,long,73,350,362,long,long,1.36714650954,TRUE
S005,12,21,1,mullerlyer,long,74,350,364,long,long,0.832250995354,TRUE
S005,12,21,1,mullerlyer,long,75,350,356,long,long,0.680258324304,TRUE
S005,12,21,1,mullerlyer,long,76,350,346,short,long,0.883533712255,FALSE
S005,12,21,1,mullerlyer,long,77,350,336,short,long,1.4750574272,FALSE
S005,12,21,1,mullerlyer,long,78,350,332,short,long,0.681736188038,FALSE
S005,12,21,1,mullerlyer,long,79,350,356,long,long,0.628293725418,TRUE
S005,12,21,1,mullerlyer,long,80,350,358,long,long,1.40404541051,TRUE
S005,12,21,1,mullerlyer,long,81,350,362,long,long,1.15633268838,TRUE
S005,12,21,1,mullerlyer,long,82,350,340,short,short,1.5488374199,TRUE
S005,12,21,1,mullerlyer,long,83,350,334,short,short,3.05515244998,TRUE
S005,12,21,1,mullerlyer,long,84,350,338,short,short,0.950289928132,TRUE
S005,12,21,1,mullerlyer,long,85,350,334,short,long,0.917549631893,FALSE
S005,12,21,1,mullerlyer,long,86,350,336,short,long,0.993250907817,FALSE
S005,12,21,1,mullerlyer,long,87,350,362,long,long,0.613081327785,TRUE
S005,12,21,1,mullerlyer,long,88,350,360,long,long,4.65272767885,TRUE
S005,12,21,1,mullerlyer,long,89,350,368,long,long,1.019960216,TRUE
S005,12,21,1,mullerlyer,long,90,350,340,short,long,1.34388766304,FALSE
S005,12,21,1,mullerlyer,long,91,350,362,long,long,0.712631569415,TRUE
S005,12,21,1,mullerlyer,long,92,350,340,short,short,2.89927948106,TRUE
S005,12,21,1,mullerlyer,long,93,350,362,long,long,0.63854066993,TRUE
S005,12,21,1,mullerlyer,long,94,350,344,short,long,0.836385150127,FALSE
S005,12,21,1,mullerlyer,long,95,350,344,short,short,0.497725248952,TRUE
S005,12,21,1,mullerlyer,long,96,350,360,long,long,0.579155359821,TRUE
S005,12,21,1,mullerlyer,long,97,350,340,short,short,0.503360811857,TRUE
S005,12,21,1,mullerlyer,long,98,350,340,short,short,0.808448212887,TRUE
S005,12,21,1,mullerlyer,long,99,350,358,long,long,0.58862382995,TRUE
S005,12,21,1,mullerlyer,long,150,350,340,short,long,1.36833338867,FALSE
S005,12,21,1,mullerlyer,long,151,350,330,short,long,1.26067451681,FALSE
S005,12,21,1,mullerlyer,long,152,350,360,long,long,0.749826888306,TRUE
S005,12,21,1,mullerlyer,long,153,350,334,short,long,0.673126484733,FALSE
S005,12,21,1,mullerlyer,long,154,350,346,short,long,0.715634687538,FALSE
S005,12,21,1,mullerlyer,long,155,350,342,short,long,0.784823522667,FALSE
S005,12,21,1,mullerlyer,long,156,350,334,short,long,0.708771797432,FALSE
S005,12,21,1,mullerlyer,long,157,350,336,short,short,1.70194301652,TRUE
S005,12,21,1,mullerlyer,long,158,350,360,long,long,0.462110121374,TRUE
S005,12,21,1,mullerlyer,long,159,350,336,short,short,0.549911708509,TRUE
S005,12,21,1,mullerlyer,long,160,350,360,long,long,0.694042663657,TRUE
S005,12,21,1,mullerlyer,long,161,350,342,short,short,3.38378304139,TRUE
S005,12,21,1,mullerlyer,long,162,350,342,short,long,0.624687810341,FALSE
S005,12,21,1,mullerlyer,long,163,350,342,short,long,1.16831920166,FALSE
S005,12,21,1,mullerlyer,long,164,350,358,long,long,1.00083914649,TRUE
S005,12,21,1,mullerlyer,long,165,350,338,short,long,0.675247895342,FALSE
S005,12,21,1,mullerlyer,long,166,350,362,long,long,0.72783159115,TRUE
S005,12,21,1,mullerlyer,long,167,350,358,long,long,2.8577468615,TRUE
S005,12,21,1,mullerlyer,long,168,350,338,short,long,0.877421828074,FALSE
S005,12,21,1,mullerlyer,long,169,350,368,long,long,0.579950134175,TRUE
S005,12,21,1,mullerlyer,long,170,350,356,long,long,0.652436996097,TRUE
S005,12,21,1,mullerlyer,long,171,350,358,long,long,1.35483369505,TRUE
S005,12,21,1,mullerlyer,long,172,350,364,long,long,0.832876431152,TRUE
S005,12,21,1,mullerlyer,long,173,350,362,long,long,0.573144897658,TRUE
S005,12,21,1,mullerlyer,long,174,350,362,long,long,1.7037073371,TRUE
S005,12,21,1,mullerlyer,long,175,350,340,short,short,4.13207169571,TRUE
S005,12,21,1,mullerlyer,long,176,350,362,long,long,0.555102946371,TRUE
S005,12,21,1,mullerlyer,long,177,350,362,long,long,1.67898421016,TRUE
S005,12,21,1,mullerlyer,long,178,350,330,short,short,1.29897612055,TRUE
S005,12,21,1,mullerlyer,long,179,350,332,short,long,0.374414182177,FALSE
S005,12,21,1,mullerlyer,long,180,350,358,long,long,1.42553299385,TRUE
S005,12,21,1,mullerlyer,long,181,350,332,short,short,1.32471859917,TRUE
S005,12,21,1,mullerlyer,long,182,350,364,long,long,0.57512745669,TRUE
S005,12,21,1,mullerlyer,long,183,350,336,short,short,0.981693627014,TRUE
S005,12,21,1,mullerlyer,long,184,350,366,long,long,0.387748159461,TRUE
S005,12,21,1,mullerlyer,long,185,350,336,short,long,1.54737827093,FALSE
S005,12,21,1,mullerlyer,long,186,350,364,long,long,0.54942572799,TRUE
S005,12,21,1,mullerlyer,long,187,350,360,long,long,2.06190999399,TRUE
S005,12,21,1,mullerlyer,long,188,350,340,short,short,1.32757984721,TRUE
S005,12,21,1,mullerlyer,long,189,350,334,short,short,0.696205427888,TRUE
S005,12,21,1,mullerlyer,long,190,350,340,short,short,1.61916785646,TRUE
S005,12,21,1,mullerlyer,long,191,350,360,long,long,0.503286858304,TRUE
S005,12,21,1,mullerlyer,long,192,350,360,long,long,0.986480384196,TRUE
S005,12,21,1,mullerlyer,long,193,350,360,long,long,1.41318818313,TRUE
S005,12,21,1,mullerlyer,long,194,350,338,short,short,0.518937242105,TRUE
S005,12,21,1,mullerlyer,long,195,350,340,short,short,3.08349235863,TRUE
S005,12,21,1,mullerlyer,long,196,350,338,short,long,0.566415123954,FALSE
S005,12,21,1,mullerlyer,long,197,350,336,short,short,0.963243874681,TRUE
S005,12,21,1,mullerlyer,long,198,350,362,long,long,0.359194540117,TRUE
S005,12,21,1,mullerlyer,long,199,350,338,short,short,0.599862959531,TRUE
S005,12,21,1,mullerlyer,long,250,350,332,short,short,1.17073884132,TRUE
S005,12,21,1,mullerlyer,long,251,350,366,long,long,0.372186218076,TRUE
S005,12,21,1,mullerlyer,long,252,350,336,short,long,0.841662113744,FALSE
S005,12,21,1,mullerlyer,long,253,350,360,long,short,0.46065248167,FALSE
S005,12,21,1,mullerlyer,long,254,350,336,short,short,0.548674118367,TRUE
S005,12,21,1,mullerlyer,long,255,350,370,long,long,0.511431106977,TRUE
S005,12,21,1,mullerlyer,long,256,350,340,short,short,2.49235591885,TRUE
S005,12,21,1,mullerlyer,long,257,350,338,short,long,1.02379523618,FALSE
S005,12,21,1,mullerlyer,long,258,350,336,short,long,0.580263153926,FALSE
S005,12,21,1,mullerlyer,long,259,350,354,long,long,0.869512721521,TRUE
S005,12,21,1,mullerlyer,long,260,350,364,long,long,0.774248767695,TRUE
S005,12,21,1,mullerlyer,long,261,350,342,short,long,0.724693847365,FALSE
S005,12,21,1,mullerlyer,long,262,350,364,long,long,0.782370377525,TRUE
S005,12,21,1,mullerlyer,long,263,350,340,short,short,0.480004165547,TRUE
S005,12,21,1,mullerlyer,long,264,350,338,short,short,0.254174150065,TRUE
S005,12,21,1,mullerlyer,long,265,350,342,short,long,0.789004162529,FALSE
S005,12,21,1,mullerlyer,long,266,350,358,long,long,0.592791490209,TRUE
S005,12,21,1,mullerlyer,long,267,350,342,short,short,0.8228477251,TRUE
S005,12,21,1,mullerlyer,long,268,350,338,short,short,0.880025596987,TRUE
S005,12,21,1,mullerlyer,long,269,350,338,short,short,0.599392675274,TRUE
S005,12,21,1,mullerlyer,long,270,350,336,short,long,0.544734959509,FALSE
S005,12,21,1,mullerlyer,long,271,350,336,short,short,0.630355973182,TRUE
S005,12,21,1,mullerlyer,long,272,350,366,long,long,0.515568582116,TRUE
S005,12,21,1,mullerlyer,long,273,350,364,long,long,0.85954498942,TRUE
S005,12,21,1,mullerlyer,long,274,350,364,long,long,0.32160047572,TRUE
S005,12,21,1,mullerlyer,long,275,350,368,long,long,1.35437457929,TRUE
S005,12,21,1,mullerlyer,long,276,350,360,long,long,0.75033128175,TRUE
S005,12,21,1,mullerlyer,long,277,350,356,long,long,0.823892130436,TRUE
S005,12,21,1,mullerlyer,long,278,350,338,short,long,0.925307209112,FALSE
S005,12,21,1,mullerlyer,long,279,350,362,long,long,0.249709166317,TRUE
S005,12,21,1,mullerlyer,long,280,350,336,short,short,0.647335106205,TRUE
S005,12,21,1,mullerlyer,long,281,350,358,long,long,0.971684541291,TRUE
S005,12,21,1,mullerlyer,long,282,350,332,short,short,0.559178240146,TRUE
S005,12,21,1,mullerlyer,long,283,350,340,short,short,0.440325516392,TRUE
S005,12,21,1,mullerlyer,long,284,350,338,short,short,0.514079851731,TRUE
S005,12,21,1,mullerlyer,long,285,350,366,long,long,0.644167781,TRUE
S005,12,21,1,mullerlyer,long,286,350,344,short,short,1.18463667674,TRUE
S005,12,21,1,mullerlyer,long,287,350,368,long,long,0.608165680114,TRUE
S005,12,21,1,mullerlyer,long,288,350,358,long,short,1.02846879915,FALSE
S005,12,21,1,mullerlyer,long,289,350,338,short,short,0.776486089188,TRUE
S005,12,21,1,mullerlyer,long,290,350,342,short,short,1.44444880452,TRUE
S005,12,21,1,mullerlyer,long,291,350,362,long,short,0.348885112395,FALSE
S005,12,21,1,mullerlyer,long,292,350,344,short,long,0.520667755343,FALSE
S005,12,21,1,mullerlyer,long,293,350,360,long,long,0.41089622656,TRUE
S005,12,21,1,mullerlyer,long,294,350,366,long,long,0.421147698835,TRUE
S005,12,21,1,mullerlyer,long,295,350,356,long,long,0.556110224003,TRUE
S005,12,21,1,mullerlyer,long,296,350,368,long,short,0.566561823664,FALSE
S005,12,21,1,mullerlyer,long,297,350,342,short,short,0.558800322378,TRUE
S005,12,21,1,mullerlyer,long,298,350,334,short,short,0.637142193071,TRUE
S005,12,21,1,mullerlyer,long,299,350,366,long,long,0.453787780458,TRUE
S005,12,21,1,mullerlyer,short,450,350,336,short,short,2.21214377779,TRUE
S005,12,21,1,mullerlyer,short,451,350,336,short,short,1.10789190103,TRUE
S005,12,21,1,mullerlyer,short,452,350,366,long,long,0.603815097998,TRUE
S005,12,21,1,mullerlyer,short,453,350,364,long,short,0.473144293956,FALSE
S005,12,21,1,mullerlyer,short,454,350,364,long,long,0.404636133408,TRUE
S005,12,21,1,mullerlyer,short,455,350,366,long,long,2.54587837206,TRUE
S005,12,21,1,mullerlyer,short,456,350,364,long,long,0.749193604377,TRUE
S005,12,21,1,mullerlyer,short,457,350,338,short,short,0.653650438137,TRUE
S005,12,21,1,mullerlyer,short,458,350,338,short,long,1.19374141611,FALSE
S005,12,21,1,mullerlyer,short,459,350,364,long,long,0.400526730438,TRUE
S005,12,21,1,mullerlyer,short,460,350,358,long,short,2.06191904953,FALSE
S005,12,21,1,mullerlyer,short,461,350,332,short,short,0.695514792224,TRUE
S005,12,21,1,mullerlyer,short,462,350,364,long,long,0.409167222577,TRUE
S005,12,21,1,mullerlyer,short,463,350,336,short,short,0.485871248366,TRUE
S005,12,21,1,mullerlyer,short,464,350,366,long,long,0.36036149706,TRUE
S005,12,21,1,mullerlyer,short,465,350,334,short,short,1.11679319265,TRUE
S005,12,21,1,mullerlyer,short,466,350,344,short,short,0.829010923997,TRUE
S005,12,21,1,mullerlyer,short,467,350,334,short,long,0.398217266495,FALSE
S005,12,21,1,mullerlyer,short,468,350,334,short,short,0.670678471062,TRUE
S005,12,21,1,mullerlyer,short,469,350,366,long,long,0.608296985411,TRUE
S005,12,21,1,mullerlyer,short,470,350,334,short,short,1.13238109324,TRUE
S005,12,21,1,mullerlyer,short,471,350,336,short,long,0.749486400091,FALSE
S005,12,21,1,mullerlyer,short,472,350,362,long,long,0.40787529921,TRUE
S005,12,21,1,mullerlyer,short,473,350,360,long,long,0.536968326749,TRUE
S005,12,21,1,mullerlyer,short,474,350,368,long,long,0.403871846032,TRUE
S005,12,21,1,mullerlyer,short,475,350,340,short,short,0.812499962271,TRUE
S005,12,21,1,mullerlyer,short,476,350,362,long,long,0.732521755926,TRUE
S005,12,21,1,mullerlyer,short,477,350,340,short,long,0.402517741306,FALSE
S005,12,21,1,mullerlyer,short,478,350,362,long,long,0.507939895379,TRUE
S005,12,21,1,mullerlyer,short,479,350,344,short,long,0.938153696621,FALSE
S005,12,21,1,mullerlyer,short,480,350,336,short,short,0.539825047013,TRUE
S005,12,21,1,mullerlyer,short,481,350,364,long,long,0.761613274211,TRUE
S005,12,21,1,mullerlyer,short,482,350,360,long,short,1.31541131761,FALSE
S005,12,21,1,mullerlyer,short,483,350,340,short,long,0.268385910793,FALSE
S005,12,21,1,mullerlyer,short,484,350,334,short,short,0.866210468805,TRUE
S005,12,21,1,mullerlyer,short,485,350,364,long,long,1.31829580819,TRUE
S005,12,21,1,mullerlyer,short,486,350,342,short,short,0.699438858519,TRUE
S005,12,21,1,mullerlyer,short,487,350,364,long,long,0.554938437439,TRUE
S005,12,21,1,mullerlyer,short,488,350,340,short,short,1.39415223566,TRUE
S005,12,21,1,mullerlyer,short,489,350,338,short,short,0.569842644942,TRUE
S005,12,21,1,mullerlyer,short,490,350,356,long,long,2.36807017438,TRUE
S005,12,21,1,mullerlyer,short,491,350,368,long,long,0.519691870239,TRUE
S005,12,21,1,mullerlyer,short,492,350,342,short,short,0.962140306499,TRUE
S005,12,21,1,mullerlyer,short,493,350,334,short,short,0.454172037105,TRUE
S005,12,21,1,mullerlyer,short,494,350,366,long,long,0.426376064403,TRUE
S005,12,21,1,mullerlyer,short,495,350,366,long,long,1.05290788405,TRUE
S005,12,21,1,mullerlyer,short,496,350,362,long,long,1.13615513947,TRUE
S005,12,21,1,mullerlyer,short,497,350,366,long,long,0.648724527528,TRUE
S005,12,21,1,mullerlyer,short,498,350,362,long,long,0.722222893,TRUE
S005,12,21,1,mullerlyer,short,499,350,364,long,long,0.408651056932,TRUE
S005,12,21,1,mullerlyer,short,650,350,366,long,short,0.927116807379,FALSE
S005,12,21,1,mullerlyer,short,651,350,344,short,short,0.390980684537,TRUE
S005,12,21,1,mullerlyer,short,652,350,368,long,long,0.362493774319,TRUE
S005,12,21,1,mullerlyer,short,653,350,358,long,short,0.235332594802,FALSE
S005,12,21,1,mullerlyer,short,654,350,338,short,short,0.694523210852,TRUE
S005,12,21,1,mullerlyer,short,655,350,370,long,long,1.41344204003,TRUE
S005,12,21,1,mullerlyer,short,656,350,340,short,short,0.63915010761,TRUE
S005,12,21,1,mullerlyer,short,657,350,338,short,short,0.514226551441,TRUE
S005,12,21,1,mullerlyer,short,658,350,336,short,short,0.451595132949,TRUE
S005,12,21,1,mullerlyer,short,659,350,354,long,long,0.448305859838,TRUE
S005,12,21,1,mullerlyer,short,660,350,342,short,short,0.671449097314,TRUE
S005,12,21,1,mullerlyer,short,661,350,358,long,long,0.570705033973,TRUE
S005,12,21,1,mullerlyer,short,662,350,342,short,long,2.00311510494,FALSE
S005,12,21,1,mullerlyer,short,663,350,338,short,short,0.778264596771,TRUE
S005,12,21,1,mullerlyer,short,664,350,338,short,long,1.98528837359,FALSE
S005,12,21,1,mullerlyer,short,665,350,338,short,long,1.25103127481,FALSE
S005,12,21,1,mullerlyer,short,666,350,362,long,long,0.433446930023,TRUE
S005,12,21,1,mullerlyer,short,667,350,358,long,long,0.390601559364,TRUE
S005,12,21,1,mullerlyer,short,668,350,338,short,short,5.89037969869,TRUE
S005,12,21,1,mullerlyer,short,669,350,368,long,long,0.566562729218,TRUE
S005,12,21,1,mullerlyer,short,670,350,342,short,short,1.32457159761,TRUE
S005,12,21,1,mullerlyer,short,671,350,334,short,short,0.658949135042,TRUE
S005,12,21,1,mullerlyer,short,672,350,336,short,short,0.725188883422,TRUE
S005,12,21,1,mullerlyer,short,673,350,360,long,long,0.479029789702,TRUE
S005,12,21,1,mullerlyer,short,674,350,336,short,short,0.503883920082,TRUE
S005,12,21,1,mullerlyer,short,675,350,332,short,short,1.10140058982,TRUE
S005,12,21,1,mullerlyer,short,676,350,366,long,long,0.457869111262,TRUE
S005,12,21,1,mullerlyer,short,677,350,336,short,short,0.436239054117,TRUE
