participant,staircase_threshold,dem_age,dem_gen,bias_source,bias_direction,trial_number,reference_length,target_length,line_type,answer,rt,accuracy
S027,6,23,male,mullerlyer,long,0,175,182,long,long,4.78342590000011,TRUE
S027,6,23,male,mullerlyer,long,1,175,182,long,long,4.88478699999996,TRUE
S027,6,23,male,mullerlyer,long,2,175,169,short,short,5.2458886999998,TRUE
S027,6,23,male,mullerlyer,long,3,175,169,short,short,1.67628000000013,TRUE
S027,6,23,male,mullerlyer,long,4,175,170,short,long,0.812893299999814,FALSE
S027,6,23,male,mullerlyer,long,5,175,179,long,long,1.39964599999985,TRUE
S027,6,23,male,mullerlyer,long,6,175,182,long,long,1.13222829999995,TRUE
S027,6,23,male,mullerlyer,long,7,175,169,short,long,5.06214470000032,FALSE
S027,6,23,male,mullerlyer,long,8,175,182,long,long,0.993432899999789,TRUE
S027,6,23,male,mullerlyer,long,9,175,180,long,long,1.86694910000006,TRUE
S027,6,23,male,mullerlyer,long,10,175,169,short,short,2.3163440999997,TRUE
S027,6,23,male,mullerlyer,long,11,175,171,short,short,4.41401899999983,TRUE
S027,6,23,male,mullerlyer,long,12,175,182,long,long,0.724021799999719,TRUE
S027,6,23,male,mullerlyer,long,13,175,179,long,long,0.806044900000416,TRUE
S027,6,23,male,mullerlyer,long,14,175,183,long,long,0.764108500000475,TRUE
S027,6,23,male,mullerlyer,long,15,175,170,short,short,3.30820419999964,TRUE
S027,6,23,male,mullerlyer,long,16,175,183,long,long,1.06093690000034,TRUE
S027,6,23,male,mullerlyer,long,17,175,181,long,long,0.851982899999712,TRUE
S027,6,23,male,mullerlyer,long,18,175,179,long,long,7.90244830000029,TRUE
S027,6,23,male,mullerlyer,long,19,175,181,long,long,0.957616400000006,TRUE
S027,6,23,male,mullerlyer,long,20,175,181,long,long,1.27586830000018,TRUE
S027,6,23,male,mullerlyer,long,21,175,168,short,short,3.26435919999949,TRUE
S027,6,23,male,mullerlyer,long,22,175,181,long,long,0.81741620000048,TRUE
S027,6,23,male,mullerlyer,long,23,175,182,long,long,1.67597440000009,TRUE
S027,6,23,male,mullerlyer,long,24,175,182,long,long,1.16855839999971,TRUE
S027,6,23,male,mullerlyer,long,25,175,181,long,long,0.866281999999956,TRUE
S027,6,23,male,mullerlyer,long,26,175,168,short,short,1.04414949999955,TRUE
S027,6,23,male,mullerlyer,long,27,175,181,long,long,0.489270199999737,TRUE
S027,6,23,male,mullerlyer,long,28,175,170,short,short,1.09025159999965,TRUE
S027,6,23,male,mullerlyer,long,29,175,182,long,long,0.572513600000093,TRUE
S027,6,23,male,mullerlyer,long,30,175,169,short,short,0.857968100000107,TRUE
S027,6,23,male,mullerlyer,long,31,175,181,long,long,0.734169299999849,TRUE
S027,6,23,male,mullerlyer,long,32,175,182,long,long,0.709925799999837,TRUE
S027,6,23,male,mullerlyer,long,33,175,168,short,short,0.8955476000001,TRUE
S027,6,23,male,mullerlyer,long,34,175,169,short,long,3.05846629999996,FALSE
S027,6,23,male,mullerlyer,long,35,175,167,short,short,0.924521099999765,TRUE
S027,6,23,male,mullerlyer,long,36,175,180,long,long,2.57563029999983,TRUE
S027,6,23,male,mullerlyer,long,37,175,169,short,short,0.954174399999829,TRUE
S027,6,23,male,mullerlyer,long,38,175,169,short,short,0.850577500000327,TRUE
S027,6,23,male,mullerlyer,long,39,175,181,long,long,1.73055300000033,TRUE
S027,6,23,male,mullerlyer,long,40,175,181,long,long,3.4330073000001,TRUE
S027,6,23,male,mullerlyer,long,41,175,170,short,short,0.892240000000129,TRUE
S027,6,23,male,mullerlyer,long,42,175,168,short,short,1.0658784999996,TRUE
S027,6,23,male,mullerlyer,long,43,175,180,long,long,1.11474519999956,TRUE
S027,6,23,male,mullerlyer,long,44,175,181,long,long,0.85809479999989,TRUE
S027,6,23,male,mullerlyer,long,45,175,170,short,short,2.43306959999973,TRUE
S027,6,23,male,mullerlyer,long,46,175,168,short,short,4.85812859999987,TRUE
S027,6,23,male,mullerlyer,long,47,175,171,short,long,0.33130650000021,FALSE
S027,6,23,male,mullerlyer,long,48,175,171,short,short,1.00094919999992,TRUE
S027,6,23,male,mullerlyer,long,49,175,180,long,long,0.487608600000385,TRUE
S027,6,23,male,mullerlyer,short,50,175,168,short,short,3.70378179999989,TRUE
S027,6,23,male,mullerlyer,short,51,175,169,short,short,10.7964337000003,TRUE
S027,6,23,male,mullerlyer,short,52,175,167,short,long,1.13197470000068,FALSE
S027,6,23,male,mullerlyer,short,53,175,180,long,long,0.793764099999862,TRUE
S027,6,23,male,mullerlyer,short,54,175,169,short,short,2.01784309999948,TRUE
S027,6,23,male,mullerlyer,short,55,175,169,short,short,5.89155360000041,TRUE
S027,6,23,male,mullerlyer,short,56,175,179,long,long,0.840575100000024,TRUE
S027,6,23,male,mullerlyer,short,57,175,182,long,long,2.76995400000033,TRUE
S027,6,23,male,mullerlyer,short,58,175,181,long,long,0.797270799999751,TRUE
S027,6,23,male,mullerlyer,short,59,175,168,short,short,0.664884300000267,TRUE
S027,6,23,male,mullerlyer,short,60,175,168,short,short,4.11800179999955,TRUE
S027,6,23,male,mullerlyer,short,61,175,169,short,long,0.770952699999725,FALSE
S027,6,23,male,mullerlyer,short,62,175,168,short,short,6.25507779999953,TRUE
S027,6,23,male,mullerlyer,short,63,175,181,long,long,0.569411299999956,TRUE
S027,6,23,male,mullerlyer,short,64,175,181,long,long,0.651732799999991,TRUE
S027,6,23,male,mullerlyer,short,65,175,170,short,short,2.38043710000056,TRUE
S027,6,23,male,mullerlyer,short,66,175,183,long,long,0.670768699999826,TRUE
S027,6,23,male,mullerlyer,short,67,175,181,long,long,1.28295509999953,TRUE
S027,6,23,male,mullerlyer,short,68,175,179,long,long,1.1938226000002,TRUE
S027,6,23,male,mullerlyer,short,69,175,181,long,long,0.723107100000561,TRUE
S027,6,23,male,mullerlyer,short,70,175,170,short,short,1.02458939999997,TRUE
S027,6,23,male,mullerlyer,short,71,175,168,short,short,1.90795270000035,TRUE
S027,6,23,male,mullerlyer,short,72,175,171,short,long,1.3350102000004,FALSE
S027,6,23,male,mullerlyer,short,73,175,171,short,long,0.599226299999827,FALSE
S027,6,23,male,mullerlyer,short,74,175,180,long,long,0.590848400000141,TRUE
S027,6,23,male,mullerlyer,short,75,175,180,long,long,2.49478859999999,TRUE
S027,6,23,male,mullerlyer,short,76,175,180,long,long,0.646385299999565,TRUE
S027,6,23,male,mullerlyer,short,77,175,167,short,short,0.820345200000702,TRUE
S027,6,23,male,mullerlyer,short,78,175,170,short,short,1.06207129999984,TRUE
S027,6,23,male,mullerlyer,short,79,175,170,short,short,4.54802810000001,TRUE
S027,6,23,male,mullerlyer,short,80,175,169,short,short,0.699609799999962,TRUE
S027,6,23,male,mullerlyer,short,81,175,170,short,short,0.704653100000542,TRUE
S027,6,23,male,mullerlyer,short,82,175,181,long,long,0.448481899999933,TRUE
S027,6,23,male,mullerlyer,short,83,175,170,short,short,0.662149800000407,TRUE
S027,6,23,male,mullerlyer,short,84,175,169,short,long,0.575080400000843,FALSE
S027,6,23,male,mullerlyer,short,85,175,180,long,long,0.871460600000319,TRUE
S027,6,23,male,mullerlyer,short,86,175,169,short,short,6.68618929999957,TRUE
S027,6,23,male,mullerlyer,short,87,175,167,short,long,2.46377399999983,FALSE
S027,6,23,male,mullerlyer,short,88,175,169,short,long,0.406474300000809,FALSE
S027,6,23,male,mullerlyer,short,89,175,167,short,short,0.879488699999456,TRUE
S027,6,23,male,mullerlyer,short,90,175,180,long,long,0.891391299999668,TRUE
S027,6,23,male,mullerlyer,short,91,175,169,short,short,2.14034340000035,TRUE
S027,6,23,male,mullerlyer,short,92,175,168,short,long,0.579315100000713,FALSE
S027,6,23,male,mullerlyer,short,93,175,180,long,long,0.575013199999376,TRUE
S027,6,23,male,mullerlyer,short,94,175,167,short,short,4.38347840000006,TRUE
S027,6,23,male,mullerlyer,short,95,175,180,long,long,2.90387639999972,TRUE
S027,6,23,male,mullerlyer,short,96,175,169,short,short,0.541223700000046,TRUE
S027,6,23,male,mullerlyer,short,97,175,168,short,long,0.624868899999456,FALSE
S027,6,23,male,mullerlyer,short,98,175,180,long,long,0.738580600000205,TRUE
S027,6,23,male,mullerlyer,short,99,175,181,long,long,0.553971499999534,TRUE
S028,6,23,male,payoff,short,100,175,170,short,short,3.1165148,TRUE
S028,6,23,male,payoff,short,101,175,183,long,long,0.531063400000676,TRUE
S028,6,23,male,payoff,short,102,175,181,long,short,0.450463199999831,FALSE
S028,6,23,male,payoff,short,103,175,179,long,long,3.33911270000044,TRUE
S028,6,23,male,payoff,short,104,175,181,long,long,0.89089899999999,TRUE
S028,6,23,male,payoff,short,105,175,169,short,short,0.816230200000064,TRUE
S028,6,23,male,payoff,short,106,175,182,long,long,0.420133700000406,TRUE
S028,6,23,male,payoff,short,107,175,180,long,short,0.932264900000518,FALSE
S028,6,23,male,payoff,short,108,175,169,short,long,2.18490750000001,FALSE
S028,6,23,male,payoff,short,109,175,179,long,short,0.765139799999815,FALSE
S028,6,23,male,payoff,short,110,175,170,short,short,0.716328700000304,TRUE
S028,6,23,male,payoff,short,111,175,167,short,short,2.12324119999994,TRUE
S028,6,23,male,payoff,short,112,175,171,short,long,0.651066700000229,FALSE
S028,6,23,male,payoff,short,113,175,179,long,long,0.662709899999754,TRUE
S028,6,23,male,payoff,short,114,175,168,short,short,0.843836899999587,TRUE
S028,6,23,male,payoff,short,115,175,168,short,short,4.9324458000001,TRUE
S028,6,23,male,payoff,short,116,175,169,short,short,1.74872060000052,TRUE
S028,6,23,male,payoff,short,117,175,168,short,short,0.943824900000436,TRUE
S028,6,23,male,payoff,short,118,175,181,long,long,0.432357600000614,TRUE
S028,6,23,male,payoff,short,119,175,181,long,long,0.471336300000075,TRUE
S028,6,23,male,payoff,short,120,175,181,long,long,1.20813410000028,TRUE
S028,6,23,male,payoff,short,121,175,181,long,long,2.99171359999946,TRUE
S028,6,23,male,payoff,short,122,175,183,long,long,0.882246300000588,TRUE
S028,6,23,male,payoff,short,123,175,181,long,long,2.05243389999941,TRUE
S028,6,23,male,payoff,short,124,175,169,short,short,1.1678923999998,TRUE
S028,6,23,male,payoff,short,125,175,179,long,long,7.97021909999967,TRUE
S028,6,23,male,payoff,short,126,175,182,long,long,0.452447900000152,TRUE
S028,6,23,male,payoff,short,127,175,169,short,short,0.522938099999919,TRUE
S028,6,23,male,payoff,short,128,175,182,long,long,0.691868799999611,TRUE
S028,6,23,male,payoff,short,129,175,180,long,long,0.904735699999946,TRUE
S028,6,23,male,payoff,short,130,175,167,short,short,1.94190190000063,TRUE
S028,6,23,male,payoff,short,131,175,180,long,long,0.781557399999656,TRUE
S028,6,23,male,payoff,short,132,175,169,short,short,0.933046000000104,TRUE
S028,6,23,male,payoff,short,133,175,169,short,short,1.42178749999948,TRUE
S028,6,23,male,payoff,short,134,175,181,long,long,0.40309840000009,TRUE
S028,6,23,male,payoff,short,135,175,180,long,long,1.40541010000015,TRUE
S028,6,23,male,payoff,short,136,175,180,long,long,0.943799900000158,TRUE
S028,6,23,male,payoff,short,137,175,167,short,short,0.570384399999966,TRUE
S028,6,23,male,payoff,short,138,175,170,short,short,0.779987300000357,TRUE
S028,6,23,male,payoff,short,139,175,170,short,short,1.03914029999942,TRUE
S028,6,23,male,payoff,short,140,175,180,long,long,4.90831900000012,TRUE
S028,6,23,male,payoff,short,141,175,169,short,short,0.753846599999633,TRUE
S028,6,23,male,payoff,short,142,175,168,short,short,1.29042459999982,TRUE
S028,6,23,male,payoff,short,143,175,180,long,long,1.86384679999992,TRUE
S028,6,23,male,payoff,short,144,175,167,short,short,2.26074739999967,TRUE
S028,6,23,male,payoff,short,145,175,169,short,short,0.590026599999874,TRUE
S028,6,23,male,payoff,short,146,175,171,short,long,0.730107299999872,FALSE
S028,6,23,male,payoff,short,147,175,182,long,long,1.08841729999949,TRUE
S028,6,23,male,payoff,short,148,175,179,long,long,0.642457199999626,TRUE
S028,6,23,male,payoff,short,149,175,183,long,long,0.751044599999659,TRUE
S027,6,23,male,mullerlyer,short,150,175,169,short,short,1.88040980000005,TRUE
S027,6,23,male,mullerlyer,short,151,175,182,long,long,0.495216000000255,TRUE
S027,6,23,male,mullerlyer,short,152,175,180,long,short,1.70057219999944,FALSE
S027,6,23,male,mullerlyer,short,153,175,169,short,long,0.738991999999598,FALSE
S027,6,23,male,mullerlyer,short,154,175,179,long,long,2.16047739999976,TRUE
S027,6,23,male,mullerlyer,short,155,175,167,short,short,1.08085940000001,TRUE
S027,6,23,male,mullerlyer,short,156,175,180,long,long,0.455434499999683,TRUE
S027,6,23,male,mullerlyer,short,157,175,169,short,short,0.621390500000416,TRUE
S027,6,23,male,mullerlyer,short,158,175,169,short,short,0.808992199999921,TRUE
S027,6,23,male,mullerlyer,short,159,175,181,long,long,0.486779800000477,TRUE
S027,6,23,male,mullerlyer,short,160,175,169,short,short,2.89690519999931,TRUE
S027,6,23,male,mullerlyer,short,161,175,181,long,long,0.397493100000247,TRUE
S027,6,23,male,mullerlyer,short,162,175,182,long,long,0.746304600000258,TRUE
S027,6,23,male,mullerlyer,short,163,175,168,short,short,0.69627330000003,TRUE
S027,6,23,male,mullerlyer,short,164,175,169,short,long,0.90478660000008,FALSE
S027,6,23,male,mullerlyer,short,165,175,171,short,short,2.06638019999991,TRUE
S027,6,23,male,mullerlyer,short,166,175,169,short,long,0.925092099999347,FALSE
S027,6,23,male,mullerlyer,short,167,175,170,short,long,1.29816979999941,FALSE
S027,6,23,male,mullerlyer,short,168,175,181,long,long,0.548247900000206,TRUE
S027,6,23,male,mullerlyer,short,169,175,183,long,long,0.655704100000548,TRUE
S027,6,23,male,mullerlyer,short,170,175,183,long,long,1.8767428000001,TRUE
S027,6,23,male,mullerlyer,short,171,175,168,short,short,0.729259800000364,TRUE
S027,6,23,male,mullerlyer,short,172,175,181,long,short,5.49661279999964,FALSE
S027,6,23,male,mullerlyer,short,173,175,180,long,long,0.479350599999634,TRUE
S027,6,23,male,mullerlyer,short,174,175,181,long,short,0.704161900000145,FALSE
S027,6,23,male,mullerlyer,short,175,175,171,short,short,3.30435099999977,TRUE
S027,6,23,male,mullerlyer,short,176,175,182,long,long,0.508906899999602,TRUE
S027,6,23,male,mullerlyer,short,177,175,182,long,long,0.608622099999593,TRUE
S027,6,23,male,mullerlyer,short,178,175,169,short,short,0.745748399999684,TRUE
S027,6,23,male,mullerlyer,short,179,175,169,short,long,0.464204599999903,FALSE
S027,6,23,male,mullerlyer,short,180,175,182,long,long,3.24983250000059,TRUE
S027,6,23,male,mullerlyer,short,181,175,182,long,long,0.602274500000021,TRUE
S027,6,23,male,mullerlyer,short,182,175,169,short,short,1.52478270000029,TRUE
S027,6,23,male,mullerlyer,short,183,175,169,short,short,2.4412583000003,TRUE
S027,6,23,male,mullerlyer,short,184,175,170,short,long,1.11867379999967,FALSE
S027,6,23,male,mullerlyer,short,185,175,169,short,short,0.914675900000475,TRUE
S027,6,23,male,mullerlyer,short,186,175,169,short,short,1.03737619999993,TRUE
S027,6,23,male,mullerlyer,short,187,175,181,long,long,0.531902399999126,TRUE
S027,6,23,male,mullerlyer,short,188,175,183,long,long,0.648679299999458,TRUE
S027,6,23,male,mullerlyer,short,189,175,170,short,short,1.03443740000057,TRUE
S027,6,23,male,mullerlyer,short,190,175,181,long,short,4.88489579999987,FALSE
S027,6,23,male,mullerlyer,short,191,175,170,short,short,0.729481500000475,TRUE
S027,6,23,male,mullerlyer,short,192,175,168,short,short,0.710851200000434,TRUE
S027,6,23,male,mullerlyer,short,193,175,180,long,long,0.865169599999717,TRUE
S027,6,23,male,mullerlyer,short,194,175,181,long,long,0.449081800000386,TRUE
S027,6,23,male,mullerlyer,short,195,175,170,short,short,0.924675399999614,TRUE
S027,6,23,male,mullerlyer,short,196,175,167,short,short,1.31502779999937,TRUE
S027,6,23,male,mullerlyer,short,197,175,171,short,long,0.743652799999836,FALSE
S027,6,23,male,mullerlyer,short,198,175,179,long,long,0.579565299999558,TRUE
S027,6,23,male,mullerlyer,short,199,175,168,short,long,0.938728500000252,FALSE
S028,6,23,male,payoff,short,200,175,181,long,long,1.68265220000012,TRUE
S028,6,23,male,payoff,short,201,175,170,short,short,1.22181719999935,TRUE
S028,6,23,male,payoff,short,202,175,168,short,short,3.86998349999976,TRUE
S028,6,23,male,payoff,short,203,175,180,long,long,0.479346600000099,TRUE
S028,6,23,male,payoff,short,204,175,181,long,long,0.456682399999409,TRUE
S028,6,23,male,payoff,short,205,175,171,short,short,0.908043100000214,TRUE
S028,6,23,male,payoff,short,206,175,169,short,short,1.65305210000042,TRUE
S028,6,23,male,payoff,short,207,175,170,short,long,0.938817399999607,FALSE
S028,6,23,male,payoff,short,208,175,181,long,long,0.598627299999862,TRUE
S028,6,23,male,payoff,short,209,175,183,long,long,0.483402099999694,TRUE
S028,6,23,male,payoff,short,210,175,180,long,short,1.93090270000084,FALSE
S028,6,23,male,payoff,short,211,175,169,short,short,1.13735739999993,TRUE
S028,6,23,male,payoff,short,212,175,168,short,short,1.32434219999959,TRUE
S028,6,23,male,payoff,short,213,175,180,long,long,0.803232100000059,TRUE
S028,6,23,male,payoff,short,214,175,181,long,long,0.632357899999988,TRUE
S028,6,23,male,payoff,short,215,175,169,short,short,1.99328719999994,TRUE
S028,6,23,male,payoff,short,216,175,171,short,short,2.81477600000017,TRUE
S028,6,23,male,payoff,short,217,175,181,long,long,0.81877220000024,TRUE
S028,6,23,male,payoff,short,218,175,183,long,long,0.852626500000042,TRUE
S028,6,23,male,payoff,short,219,175,170,short,short,0.916665900000226,TRUE
S028,6,23,male,payoff,short,220,175,182,long,short,2.50793659999999,FALSE
S028,6,23,male,payoff,short,221,175,182,long,long,0.437722900000154,TRUE
S028,6,23,male,payoff,short,222,175,169,short,short,0.692164400000365,TRUE
S028,6,23,male,payoff,short,223,175,169,short,short,1.50548880000042,TRUE
S028,6,23,male,payoff,short,224,175,170,short,short,0.844505300000492,TRUE
S028,6,23,male,payoff,short,225,175,169,short,short,0.974607400000423,TRUE
S028,6,23,male,payoff,short,226,175,181,long,long,0.554903400000512,TRUE
S028,6,23,male,payoff,short,227,175,182,long,long,3.33222120000028,TRUE
S028,6,23,male,payoff,short,228,175,168,short,short,0.610591300000124,TRUE
S028,6,23,male,payoff,short,229,175,169,short,short,0.938497699999971,TRUE
S028,6,23,male,payoff,short,230,175,169,short,long,3.24999239999943,FALSE
S028,6,23,male,payoff,short,231,175,169,short,long,1.01374459999988,FALSE
S028,6,23,male,payoff,short,232,175,170,short,long,1.01166250000006,FALSE
S028,6,23,male,payoff,short,233,175,179,long,long,0.303359399999863,TRUE
S028,6,23,male,payoff,short,234,175,170,short,short,0.456403000000137,TRUE
S028,6,23,male,payoff,short,235,175,180,long,long,1.16527610000048,TRUE
S028,6,23,male,payoff,short,236,175,169,short,short,1.73155620000034,TRUE
S028,6,23,male,payoff,short,237,175,167,short,short,0.869454600000609,TRUE
S028,6,23,male,payoff,short,238,175,169,short,long,0.840525099999468,FALSE
S028,6,23,male,payoff,short,239,175,167,short,short,0.702039599999807,TRUE
S028,6,23,male,payoff,short,240,175,170,short,short,1.05597219999981,TRUE
S028,6,23,male,payoff,short,241,175,168,short,short,0.760942599999907,TRUE
S028,6,23,male,payoff,short,242,175,171,short,long,0.512945699999364,FALSE
S028,6,23,male,payoff,short,243,175,171,short,long,2.61469639999996,FALSE
S028,6,23,male,payoff,short,244,175,180,long,long,0.533813599999121,TRUE
S028,6,23,male,payoff,short,245,175,182,long,short,1.82481149999967,FALSE
S028,6,23,male,payoff,short,246,175,181,long,long,0.816834099999142,TRUE
S028,6,23,male,payoff,short,247,175,181,long,long,0.566616199999771,TRUE
S028,6,23,male,payoff,short,248,175,168,short,short,0.803092699999979,TRUE
S028,6,23,male,payoff,short,249,175,181,long,long,0.670312600000216,TRUE
S027,6,23,male,mullerlyer,long,250,175,169,short,short,4.01847350000026,TRUE
S027,6,23,male,mullerlyer,long,251,175,169,short,long,0.527479800000037,FALSE
S027,6,23,male,mullerlyer,long,252,175,181,long,long,0.616146700000172,TRUE
S027,6,23,male,mullerlyer,long,253,175,183,long,long,0.648716099999547,TRUE
S027,6,23,male,mullerlyer,long,254,175,170,short,long,1.49556959999973,FALSE
S027,6,23,male,mullerlyer,long,255,175,169,short,long,2.14139749999958,FALSE
S027,6,23,male,mullerlyer,long,256,175,169,short,long,0.833239399999911,FALSE
S027,6,23,male,mullerlyer,long,257,175,170,short,long,0.669008399999257,FALSE
S027,6,23,male,mullerlyer,long,258,175,179,long,long,0.684921500000201,TRUE
S027,6,23,male,mullerlyer,long,259,175,170,short,long,0.844965500000399,FALSE
S027,6,23,male,mullerlyer,long,260,175,180,long,long,0.84164039999996,TRUE
S027,6,23,male,mullerlyer,long,261,175,180,long,long,0.833958299999722,TRUE
S027,6,23,male,mullerlyer,long,262,175,167,short,long,1.63024789999963,FALSE
S027,6,23,male,mullerlyer,long,263,175,170,short,long,2.94697499999984,FALSE
S027,6,23,male,mullerlyer,long,264,175,170,short,long,1.11811900000066,FALSE
S027,6,23,male,mullerlyer,long,265,175,182,long,long,1.22471049999967,TRUE
S027,6,23,male,mullerlyer,long,266,175,181,long,long,0.999252999999953,TRUE
S027,6,23,male,mullerlyer,long,267,175,181,long,long,0.572212300000501,TRUE
S027,6,23,male,mullerlyer,long,268,175,168,short,short,2.21724379999978,TRUE
S027,6,23,male,mullerlyer,long,269,175,181,long,long,0.500469900000098,TRUE
S027,6,23,male,mullerlyer,long,270,175,169,short,short,3.09482969999954,TRUE
S027,6,23,male,mullerlyer,long,271,175,182,long,long,0.449644100000114,TRUE
S027,6,23,male,mullerlyer,long,272,175,180,long,long,0.988191999999799,TRUE
S027,6,23,male,mullerlyer,long,273,175,169,short,short,1.1033252999996,TRUE
S027,6,23,male,mullerlyer,long,274,175,179,long,long,0.505922300000748,TRUE
S027,6,23,male,mullerlyer,long,275,175,180,long,long,1.88208710000072,TRUE
S027,6,23,male,mullerlyer,long,276,175,169,short,short,0.559557600000517,TRUE
S027,6,23,male,mullerlyer,long,277,175,168,short,long,0.262215400000059,FALSE
S027,6,23,male,mullerlyer,long,278,175,180,long,long,0.628182399999787,TRUE
S027,6,23,male,mullerlyer,long,279,175,181,long,long,0.611103899999762,TRUE
S027,6,23,male,mullerlyer,long,280,175,171,short,long,0.674534599999788,FALSE
S027,6,23,male,mullerlyer,long,281,175,169,short,long,0.388981500000227,FALSE
S027,6,23,male,mullerlyer,long,282,175,170,short,long,1.06056649999937,FALSE
S027,6,23,male,mullerlyer,long,283,175,181,long,long,0.507291200000509,TRUE
S027,6,23,male,mullerlyer,long,284,175,183,long,long,0.509435100000701,TRUE
S027,6,23,male,mullerlyer,long,285,175,180,long,long,0.566278000000239,TRUE
S027,6,23,male,mullerlyer,long,286,175,170,short,long,1.8762526999999,FALSE
S027,6,23,male,mullerlyer,long,287,175,181,long,long,0.905194999999367,TRUE
S027,6,23,male,mullerlyer,long,288,175,180,long,long,0.646508499999982,TRUE
S027,6,23,male,mullerlyer,long,289,175,182,long,long,0.619089200000417,TRUE
S027,6,23,male,mullerlyer,long,290,175,180,long,long,1.89138809999986,TRUE
S027,6,23,male,mullerlyer,long,291,175,169,short,short,2.74676929999987,TRUE
S027,6,23,male,mullerlyer,long,292,175,168,short,long,0.42227179999918,FALSE
S027,6,23,male,mullerlyer,long,293,175,180,long,long,0.419002599999658,TRUE
S027,6,23,male,mullerlyer,long,294,175,167,short,long,0.691427400000066,FALSE
S027,6,23,male,mullerlyer,long,295,175,170,short,short,0.941333899999336,TRUE
S027,6,23,male,mullerlyer,long,296,175,167,short,long,0.443394900000385,FALSE
S027,6,23,male,mullerlyer,long,297,175,171,short,long,0.704360200000338,FALSE
S027,6,23,male,mullerlyer,long,298,175,179,long,long,0.505269299999782,TRUE
S027,6,23,male,mullerlyer,long,299,175,168,short,long,1.42254499999945,FALSE
S027,6,23,male,mullerlyer,short,300,175,169,short,short,2.29384070000015,TRUE
S027,6,23,male,mullerlyer,short,301,175,171,short,long,2.61114819999966,FALSE
S027,6,23,male,mullerlyer,short,302,175,181,long,long,1.94886289999977,TRUE
S027,6,23,male,mullerlyer,short,303,175,183,long,long,0.788908699999411,TRUE
S027,6,23,male,mullerlyer,short,304,175,170,short,short,0.769252399999459,TRUE
S027,6,23,male,mullerlyer,short,305,175,180,long,long,3.1485816000004,TRUE
S027,6,23,male,mullerlyer,short,306,175,170,short,short,0.521513900000173,TRUE
S027,6,23,male,mullerlyer,short,307,175,181,long,long,0.473545300000296,TRUE
S027,6,23,male,mullerlyer,short,308,175,180,long,long,0.836082300000271,TRUE
S027,6,23,male,mullerlyer,short,309,175,182,long,long,1.01406229999975,TRUE
S027,6,23,male,mullerlyer,short,310,175,169,short,short,1.79128229999969,TRUE
S027,6,23,male,mullerlyer,short,311,175,171,short,short,4.73041699999976,TRUE
S027,6,23,male,mullerlyer,short,312,175,182,long,long,0.338745300000483,TRUE
S027,6,23,male,mullerlyer,short,313,175,179,long,long,0.464836099999957,TRUE
S027,6,23,male,mullerlyer,short,314,175,183,long,long,0.533351399999447,TRUE
S027,6,23,male,mullerlyer,short,315,175,168,short,short,2.76659130000007,TRUE
S027,6,23,male,mullerlyer,short,316,175,182,long,long,0.617683899999975,TRUE
S027,6,23,male,mullerlyer,short,317,175,181,long,long,1.46990069999993,TRUE
S027,6,23,male,mullerlyer,short,318,175,168,short,short,0.562696400000277,TRUE
S027,6,23,male,mullerlyer,short,319,175,181,long,long,0.534761299999445,TRUE
S027,6,23,male,mullerlyer,short,320,175,169,short,short,0.983440699999846,TRUE
S027,6,23,male,mullerlyer,short,321,175,169,short,short,1.1579028999995,TRUE
S027,6,23,male,mullerlyer,short,322,175,170,short,long,0.680336200000056,FALSE
S027,6,23,male,mullerlyer,short,323,175,179,long,long,0.562506100000064,TRUE
S027,6,23,male,mullerlyer,short,324,175,170,short,short,4.79393319999963,TRUE
S027,6,23,male,mullerlyer,short,325,175,179,long,short,0.93802980000055,FALSE
S027,6,23,male,mullerlyer,short,326,175,182,long,long,0.649492599999576,TRUE
S027,6,23,male,mullerlyer,short,327,175,169,short,short,0.991598499999782,TRUE
S027,6,23,male,mullerlyer,short,328,175,182,long,long,0.393252300000313,TRUE
S027,6,23,male,mullerlyer,short,329,175,180,long,long,0.389035300000614,TRUE
S027,6,23,male,mullerlyer,short,330,175,181,long,long,1.2746975,TRUE
S027,6,23,male,mullerlyer,short,331,175,168,short,short,0.805614300000343,TRUE
S027,6,23,male,mullerlyer,short,332,175,181,long,long,0.452411699999175,TRUE
S027,6,23,male,mullerlyer,short,333,175,182,long,long,1.21879040000022,TRUE
S027,6,23,male,mullerlyer,short,334,175,182,long,long,0.585303099999692,TRUE
S027,6,23,male,mullerlyer,short,335,175,181,long,long,1.5330383999999,TRUE
S027,6,23,male,mullerlyer,short,336,175,181,long,long,0.874200400000518,TRUE
S027,6,23,male,mullerlyer,short,337,175,183,long,long,0.564320800000132,TRUE
S027,6,23,male,mullerlyer,short,338,175,181,long,short,0.657113299999764,FALSE
S027,6,23,male,mullerlyer,short,339,175,169,short,short,0.788949499999944,TRUE
S027,6,23,male,mullerlyer,short,340,175,182,long,long,1.8248564000005,TRUE
S027,6,23,male,mullerlyer,short,341,175,181,long,long,2.57519690000026,TRUE
S027,6,23,male,mullerlyer,short,342,175,181,long,short,1.44086730000072,FALSE
S027,6,23,male,mullerlyer,short,343,175,168,short,short,0.658661699999356,TRUE
S027,6,23,male,mullerlyer,short,344,175,181,long,long,0.509210600000188,TRUE
S027,6,23,male,mullerlyer,short,345,175,181,long,long,1.12046610000016,TRUE
S027,6,23,male,mullerlyer,short,346,175,168,short,short,0.869938900000307,TRUE
S027,6,23,male,mullerlyer,short,347,175,181,long,long,0.430309800000032,TRUE
S027,6,23,male,mullerlyer,short,348,175,170,short,short,0.484035599999515,TRUE
S027,6,23,male,mullerlyer,short,349,175,182,long,long,0.556932099999358,TRUE
S027,6,23,male,mullerlyer,long,350,175,171,short,long,0.795973400000548,FALSE
S027,6,23,male,mullerlyer,long,351,175,182,long,long,1.26933989999998,TRUE
S027,6,23,male,mullerlyer,long,352,175,182,long,long,0.841911100000289,TRUE
S027,6,23,male,mullerlyer,long,353,175,169,short,long,1.8993859000002,FALSE
S027,6,23,male,mullerlyer,long,354,175,169,short,long,3.44265910000013,FALSE
S027,6,23,male,mullerlyer,long,355,175,180,long,long,1.25809059999938,TRUE
S027,6,23,male,mullerlyer,long,356,175,169,short,long,0.864409400000113,FALSE
S027,6,23,male,mullerlyer,long,357,175,167,short,long,1.97840910000014,FALSE
S027,6,23,male,mullerlyer,long,358,175,169,short,long,0.80762009999944,FALSE
S027,6,23,male,mullerlyer,long,359,175,167,short,long,2.48403000000053,FALSE
S027,6,23,male,mullerlyer,long,360,175,168,short,long,2.55801840000004,FALSE
S027,6,23,male,mullerlyer,long,361,175,169,short,long,0.531452199999876,FALSE
S027,6,23,male,mullerlyer,long,362,175,168,short,long,2.70050269999956,FALSE
S027,6,23,male,mullerlyer,long,363,175,181,long,long,0.691135499999291,TRUE
S027,6,23,male,mullerlyer,long,364,175,181,long,long,1.64292750000004,TRUE
S027,6,23,male,mullerlyer,long,365,175,181,long,short,1.52473040000041,FALSE
S027,6,23,male,mullerlyer,long,366,175,181,long,long,0.503555600000254,TRUE
S027,6,23,male,mullerlyer,long,367,175,183,long,long,0.587909699999727,TRUE
S027,6,23,male,mullerlyer,long,368,175,181,long,long,9.12861780000003,TRUE
S027,6,23,male,mullerlyer,long,369,175,169,short,short,0.891828100000566,TRUE
S027,6,23,male,mullerlyer,long,370,175,169,short,short,1.39881059999971,TRUE
S027,6,23,male,mullerlyer,long,371,175,171,short,long,1.22141999999985,FALSE
S027,6,23,male,mullerlyer,long,372,175,181,long,long,1.18674620000002,TRUE
S027,6,23,male,mullerlyer,long,373,175,183,long,long,1.14478550000058,TRUE
S027,6,23,male,mullerlyer,long,374,175,170,short,short,0.856730100000277,TRUE
S027,6,23,male,mullerlyer,long,375,175,183,long,long,0.849526799999694,TRUE
S027,6,23,male,mullerlyer,long,376,175,168,short,short,0.965682600000036,TRUE
S027,6,23,male,mullerlyer,long,377,175,181,long,long,0.91633019999972,TRUE
S027,6,23,male,mullerlyer,long,378,175,180,long,long,3.44026930000018,TRUE
S027,6,23,male,mullerlyer,long,379,175,181,long,long,0.659202699999696,TRUE
S027,6,23,male,mullerlyer,long,380,175,169,short,short,0.708022799999526,TRUE
S027,6,23,male,mullerlyer,long,381,175,179,long,short,0.867419600000176,FALSE
S027,6,23,male,mullerlyer,long,382,175,182,long,long,0.583573499999147,TRUE
S027,6,23,male,mullerlyer,long,383,175,181,long,long,1.24252830000023,TRUE
S027,6,23,male,mullerlyer,long,384,175,168,short,long,0.888987700000143,FALSE
S027,6,23,male,mullerlyer,long,385,175,168,short,short,0.785750500000176,TRUE
S027,6,23,male,mullerlyer,long,386,175,169,short,long,0.632046200000332,FALSE
S027,6,23,male,mullerlyer,long,387,175,167,short,long,0.734615299999859,FALSE
S027,6,23,male,mullerlyer,long,388,175,180,long,long,0.633816800000204,TRUE
S027,6,23,male,mullerlyer,long,389,175,169,short,long,0.594849699999941,FALSE
S027,6,23,male,mullerlyer,long,390,175,169,short,long,1.72459000000072,FALSE
S027,6,23,male,mullerlyer,long,391,175,170,short,long,1.44406009999966,FALSE
S027,6,23,male,mullerlyer,long,392,175,181,long,long,0.662239299999783,TRUE
S027,6,23,male,mullerlyer,long,393,175,170,short,long,0.775764700000764,FALSE
S027,6,23,male,mullerlyer,long,394,175,169,short,long,2.3794814999992,FALSE
S027,6,23,male,mullerlyer,long,395,175,168,short,short,0.966360700000223,TRUE
S027,6,23,male,mullerlyer,long,396,175,182,long,short,0.610036999999466,FALSE
S027,6,23,male,mullerlyer,long,397,175,181,long,long,0.246620099999745,TRUE
S027,6,23,male,mullerlyer,long,398,175,168,short,long,0.402535700000044,FALSE
S027,6,23,male,mullerlyer,long,399,175,181,long,long,1.03010939999967,TRUE
S028,6,23,male,payoff,long,400,175,168,short,short,1.90202820000013,TRUE
S028,6,23,male,payoff,long,401,175,182,long,long,0.765764699999636,TRUE
S028,6,23,male,payoff,long,402,175,181,long,long,1.57478649999939,TRUE
S028,6,23,male,payoff,long,403,175,168,short,short,0.872550900000533,TRUE
S028,6,23,male,payoff,long,404,175,181,long,long,0.99453799999992,TRUE
S028,6,23,male,payoff,long,405,175,168,short,short,0.949626900000112,TRUE
S028,6,23,male,payoff,long,406,175,169,short,long,0.417739800000163,FALSE
S028,6,23,male,payoff,long,407,175,168,short,long,0.624326199999814,FALSE
S028,6,23,male,payoff,long,408,175,181,long,long,2.38310139999976,TRUE
S028,6,23,male,payoff,long,409,175,181,long,long,0.750488600000608,TRUE
S028,6,23,male,payoff,long,410,175,183,long,long,2.83332440000049,TRUE
S028,6,23,male,payoff,long,411,175,168,short,short,0.475954599999568,TRUE
S028,6,23,male,payoff,long,412,175,181,long,long,0.658508999999867,TRUE
S028,6,23,male,payoff,long,413,175,180,long,long,0.623543900000186,TRUE
S028,6,23,male,payoff,long,414,175,181,long,long,1.68317329999991,TRUE
S028,6,23,male,payoff,long,415,175,182,long,short,1.03307390000009,FALSE
S028,6,23,male,payoff,long,416,175,182,long,short,2.65068270000029,FALSE
S028,6,23,male,payoff,long,417,175,169,short,short,0.766759299999649,TRUE
S028,6,23,male,payoff,long,418,175,169,short,short,0.802828700000646,TRUE
S028,6,23,male,payoff,long,419,175,170,short,short,2.34741219999978,TRUE
S028,6,23,male,payoff,long,420,175,180,long,long,0.849710700000287,TRUE
S028,6,23,male,payoff,long,421,175,180,long,long,1.17287829999987,TRUE
S028,6,23,male,payoff,long,422,175,167,short,short,0.554729800000132,TRUE
S028,6,23,male,payoff,long,423,175,170,short,long,1.48579170000085,FALSE
S028,6,23,male,payoff,long,424,175,170,short,long,0.63830549999966,FALSE
S028,6,23,male,payoff,long,425,175,180,long,short,2.18604169999981,FALSE
S028,6,23,male,payoff,long,426,175,169,short,short,2.94804560000011,TRUE
S028,6,23,male,payoff,long,427,175,168,short,short,0.695158099999389,TRUE
S028,6,23,male,payoff,long,428,175,180,long,long,0.47342590000062,TRUE
S028,6,23,male,payoff,long,429,175,167,short,long,1.56605450000006,FALSE
S028,6,23,male,payoff,long,430,175,180,long,short,1.83798719999959,FALSE
S028,6,23,male,payoff,long,431,175,169,short,short,5.30198349999955,TRUE
S028,6,23,male,payoff,long,432,175,167,short,short,0.678532200000518,TRUE
S028,6,23,male,payoff,long,433,175,169,short,short,0.811977000000297,TRUE
S028,6,23,male,payoff,long,434,175,167,short,short,0.883014699999876,TRUE
S028,6,23,male,payoff,long,435,175,180,long,long,0.741435199999614,TRUE
S028,6,23,male,payoff,long,436,175,169,short,short,1.15495999999985,TRUE
S028,6,23,male,payoff,long,437,175,168,short,long,0.738178600000538,FALSE
S028,6,23,male,payoff,long,438,175,180,long,long,0.941689700000097,TRUE
S028,6,23,male,payoff,long,439,175,181,long,long,1.04449229999955,TRUE
S028,6,23,male,payoff,long,440,175,179,long,long,4.89519199999995,TRUE
S028,6,23,male,payoff,long,441,175,182,long,long,0.945227799999884,TRUE
S028,6,23,male,payoff,long,442,175,169,short,short,0.653121199999987,TRUE
S028,6,23,male,payoff,long,443,175,182,long,long,0.886110500000541,TRUE
S028,6,23,male,payoff,long,444,175,180,long,short,0.816662999999608,FALSE
S028,6,23,male,payoff,long,445,175,168,short,short,0.773400499999298,TRUE
S028,6,23,male,payoff,long,446,175,169,short,long,1.79369980000047,FALSE
S028,6,23,male,payoff,long,447,175,167,short,short,0.608832500000062,TRUE
S028,6,23,male,payoff,long,448,175,180,long,long,0.572055700000419,TRUE
S028,6,23,male,payoff,long,449,175,169,short,short,1.50202679999984,TRUE
S028,6,23,male,payoff,long,450,175,170,short,short,1.10798630000045,TRUE
S028,6,23,male,payoff,long,451,175,167,short,long,3.83142780000071,FALSE
S028,6,23,male,payoff,long,452,175,171,short,long,0.677203700000064,FALSE
S028,6,23,male,payoff,long,453,175,179,long,long,0.606896899999811,TRUE
S028,6,23,male,payoff,long,454,175,168,short,short,0.67430719999993,TRUE
S028,6,23,male,payoff,long,455,175,169,short,short,0.79120630000034,TRUE
S028,6,23,male,payoff,long,456,175,179,long,long,0.486714300000131,TRUE
S028,6,23,male,payoff,long,457,175,182,long,short,0.990006500000163,FALSE
S028,6,23,male,payoff,long,458,175,181,long,long,0.62787230000049,TRUE
S028,6,23,male,payoff,long,459,175,168,short,short,0.539162699999906,TRUE
S028,6,23,male,payoff,long,460,175,182,long,short,0.792404299999362,FALSE
S028,6,23,male,payoff,long,461,175,181,long,long,1.22128429999975,TRUE
S028,6,23,male,payoff,long,462,175,181,long,long,0.567047100000309,TRUE
S028,6,23,male,payoff,long,463,175,168,short,short,0.748884499999804,TRUE
S028,6,23,male,payoff,long,464,175,181,long,long,0.425613899999917,TRUE
S028,6,23,male,payoff,long,465,175,171,short,short,0.799677999999403,TRUE
S028,6,23,male,payoff,long,466,175,182,long,long,0.485862900000029,TRUE
S028,6,23,male,payoff,long,467,175,182,long,long,0.963721600000099,TRUE
S028,6,23,male,payoff,long,468,175,169,short,short,0.521822800000336,TRUE
S028,6,23,male,payoff,long,469,175,169,short,short,1.18652689999999,TRUE
S028,6,23,male,payoff,long,470,175,169,short,long,1.14956110000003,FALSE
S028,6,23,male,payoff,long,471,175,170,short,long,1.38353879999977,FALSE
S028,6,23,male,payoff,long,472,175,181,long,long,0.619153600000573,TRUE
S028,6,23,male,payoff,long,473,175,170,short,short,0.414239200000338,TRUE
S028,6,23,male,payoff,long,474,175,169,short,short,1.55028349999975,TRUE
S028,6,23,male,payoff,long,475,175,180,long,long,5.72428900000068,TRUE
S028,6,23,male,payoff,long,476,175,170,short,short,0.593924200000402,TRUE
S028,6,23,male,payoff,long,477,175,181,long,long,0.569458300000406,TRUE
S028,6,23,male,payoff,long,478,175,180,long,long,1.25996149999992,TRUE
S028,6,23,male,payoff,long,479,175,182,long,long,0.678569000000607,TRUE
S028,6,23,male,payoff,long,480,175,169,short,short,1.1078923999994,TRUE
S028,6,23,male,payoff,long,481,175,171,short,long,0.57668939999985,FALSE
S028,6,23,male,payoff,long,482,175,181,long,long,1.95464100000027,TRUE
S028,6,23,male,payoff,long,483,175,183,long,long,0.677419399999963,TRUE
S028,6,23,male,payoff,long,484,175,170,short,long,1.75183789999937,FALSE
S028,6,23,male,payoff,long,485,175,167,short,short,1.15235200000006,TRUE
S028,6,23,male,payoff,long,486,175,180,long,long,0.83631239999977,TRUE
S028,6,23,male,payoff,long,487,175,169,short,short,1.0575175999993,TRUE
S028,6,23,male,payoff,long,488,175,169,short,short,2.43456890000016,TRUE
S028,6,23,male,payoff,long,489,175,181,long,long,0.401063899999826,TRUE
S028,6,23,male,payoff,long,490,175,169,short,short,0.523614999999154,TRUE
S028,6,23,male,payoff,long,491,175,169,short,short,0.710290799999711,TRUE
S028,6,23,male,payoff,long,492,175,170,short,long,0.590614200000346,FALSE
S028,6,23,male,payoff,long,493,175,179,long,long,0.619728199999372,TRUE
S028,6,23,male,payoff,long,494,175,170,short,long,1.14639179999995,FALSE
S028,6,23,male,payoff,long,495,175,181,long,long,1.09123319999981,TRUE
S028,6,23,male,payoff,long,496,175,181,long,long,0.829866600000059,TRUE
S028,6,23,male,payoff,long,497,175,183,long,long,0.948466799999551,TRUE
S028,6,23,male,payoff,long,498,175,181,long,long,1.90225340000052,TRUE
S028,6,23,male,payoff,long,499,175,169,short,short,0.460714999999254,TRUE
S028,6,23,male,payoff,long,500,175,170,short,short,2.15336169999955,TRUE
S028,6,23,male,payoff,long,501,175,168,short,long,0.532283399999869,FALSE
S028,6,23,male,payoff,long,502,175,171,short,long,0.920536799999354,FALSE
S028,6,23,male,payoff,long,503,175,171,short,short,0.480407099999866,TRUE
S028,6,23,male,payoff,long,504,175,180,long,long,0.451684700000442,TRUE
S028,6,23,male,payoff,long,505,175,169,short,short,0.441179400000692,TRUE
S028,6,23,male,payoff,long,506,175,169,short,short,0.798761600000034,TRUE
S028,6,23,male,payoff,long,507,175,181,long,long,0.656189400000585,TRUE
S028,6,23,male,payoff,long,508,175,183,long,short,6.89792390000002,FALSE
S028,6,23,male,payoff,long,509,175,170,short,short,0.783657500000118,TRUE
S028,6,23,male,payoff,long,510,175,181,long,long,0.847229699999843,TRUE
S028,6,23,male,payoff,long,511,175,170,short,short,0.573489599999448,TRUE
S028,6,23,male,payoff,long,512,175,168,short,short,1.74593229999937,TRUE
S028,6,23,male,payoff,long,513,175,180,long,long,0.371853999999985,TRUE
S028,6,23,male,payoff,long,514,175,181,long,long,0.855581200000415,TRUE
S028,6,23,male,payoff,long,515,175,169,short,short,1.36666630000036,TRUE
S028,6,23,male,payoff,long,516,175,181,long,long,0.523154099999374,TRUE
S028,6,23,male,payoff,long,517,175,182,long,long,1.03186409999944,TRUE
S028,6,23,male,payoff,long,518,175,168,short,short,0.719298600000002,TRUE
S028,6,23,male,payoff,long,519,175,169,short,long,0.590462300000581,FALSE
S028,6,23,male,payoff,long,520,175,181,long,long,2.43575700000019,TRUE
S028,6,23,male,payoff,long,521,175,168,short,short,0.822025999999823,TRUE
S028,6,23,male,payoff,long,522,175,181,long,long,0.474510000000009,TRUE
S028,6,23,male,payoff,long,523,175,182,long,short,1.12086610000006,FALSE
S028,6,23,male,payoff,long,524,175,182,long,long,0.913807000000816,TRUE
S028,6,23,male,payoff,long,525,175,169,short,short,1.02460819999942,TRUE
S028,6,23,male,payoff,long,526,175,182,long,long,0.643535899999733,TRUE
S028,6,23,male,payoff,long,527,175,180,long,long,2.44004480000058,TRUE
S028,6,23,male,payoff,long,528,175,169,short,short,0.55120579999948,TRUE
S028,6,23,male,payoff,long,529,175,179,long,long,0.934812199999214,TRUE
S028,6,23,male,payoff,long,530,175,171,short,short,0.756768299999749,TRUE
S028,6,23,male,payoff,long,531,175,169,short,short,1.41579319999983,TRUE
S028,6,23,male,payoff,long,532,175,170,short,long,0.562234099999841,FALSE
S028,6,23,male,payoff,long,533,175,181,long,long,0.619973700000628,TRUE
S028,6,23,male,payoff,long,534,175,183,long,long,1.26279700000032,TRUE
S028,6,23,male,payoff,long,535,175,181,long,long,2.84971259999929,TRUE
S028,6,23,male,payoff,long,536,175,168,short,short,0.776609999999891,TRUE
S028,6,23,male,payoff,long,537,175,181,long,long,0.487423700000363,TRUE
S028,6,23,male,payoff,long,538,175,170,short,short,1.02592439999989,TRUE
S028,6,23,male,payoff,long,539,175,182,long,long,0.452499299999545,TRUE
S028,6,23,male,payoff,long,540,175,170,short,short,0.566130700000031,TRUE
S028,6,23,male,payoff,long,541,175,183,long,long,0.523211400000037,TRUE
S028,6,23,male,payoff,long,542,175,181,long,short,1.27550820000033,FALSE
S028,6,23,male,payoff,long,543,175,179,long,short,2.62479780000012,FALSE
S028,6,23,male,payoff,long,544,175,181,long,long,0.259403799999745,TRUE
S028,6,23,male,payoff,long,545,175,169,short,short,0.816158399999949,TRUE
S028,6,23,male,payoff,long,546,175,171,short,long,0.397595599999477,FALSE
S028,6,23,male,payoff,long,547,175,182,long,long,0.796587000000727,TRUE
S028,6,23,male,payoff,long,548,175,179,long,long,0.615696400000161,TRUE
S028,6,23,male,payoff,long,549,175,183,long,long,0.657214599999861,TRUE
S028,6,23,male,payoff,short,550,175,183,long,long,1.46640969999953,TRUE
S028,6,23,male,payoff,short,551,175,168,short,short,0.509624399999666,TRUE
S028,6,23,male,payoff,short,552,175,181,long,long,0.610036600000058,TRUE
S028,6,23,male,payoff,short,553,175,180,long,long,2.64317229999961,TRUE
S028,6,23,male,payoff,short,554,175,181,long,short,0.445174100000259,FALSE
S028,6,23,male,payoff,short,555,175,168,short,short,0.866166400000111,TRUE
S028,6,23,male,payoff,short,556,175,182,long,long,0.592375199999879,TRUE
S028,6,23,male,payoff,short,557,175,181,long,long,1.59515970000029,TRUE
S028,6,23,male,payoff,short,558,175,168,short,short,0.774732700000641,TRUE
S028,6,23,male,payoff,short,559,175,181,long,long,0.802856299999803,TRUE
S028,6,23,male,payoff,short,560,175,181,long,long,1.4707999000002,TRUE
S028,6,23,male,payoff,short,561,175,168,short,long,1.27016860000003,FALSE
S028,6,23,male,payoff,short,562,175,181,long,long,0.741089099999954,TRUE
S028,6,23,male,payoff,short,563,175,182,long,long,0.742539500000021,TRUE
S028,6,23,male,payoff,short,564,175,182,long,long,0.701840499999889,TRUE
S028,6,23,male,payoff,short,565,175,169,short,short,0.420933500000501,TRUE
S028,6,23,male,payoff,short,566,175,170,short,short,0.694550700000036,TRUE
S028,6,23,male,payoff,short,567,175,181,long,long,0.457554599999639,TRUE
S028,6,23,male,payoff,short,568,175,170,short,short,0.760056400000394,TRUE
S028,6,23,male,payoff,short,569,175,169,short,long,0.593364100000144,FALSE
S028,6,23,male,payoff,short,570,175,180,long,short,1.5746992000004,FALSE
S028,6,23,male,payoff,short,571,175,170,short,short,0.942602500000248,TRUE
S028,6,23,male,payoff,short,572,175,181,long,long,0.472294199999851,TRUE
S028,6,23,male,payoff,short,573,175,180,long,long,0.666368300000613,TRUE
S028,6,23,male,payoff,short,574,175,182,long,long,0.622815799999444,TRUE
S028,6,23,male,payoff,short,575,175,171,short,short,1.07461469999998,TRUE
S028,6,23,male,payoff,short,576,175,182,long,long,0.681612899999891,TRUE
S028,6,23,male,payoff,short,577,175,182,long,long,1.38127009999971,TRUE
S028,6,23,male,payoff,short,578,175,169,short,long,0.834519099999852,FALSE
S028,6,23,male,payoff,short,579,175,169,short,long,0.581391200000326,FALSE
S028,6,23,male,payoff,short,580,175,169,short,short,0.674585599999773,TRUE
S028,6,23,male,payoff,short,581,175,169,short,short,0.588252100000318,TRUE
S028,6,23,male,payoff,short,582,175,181,long,long,0.430906299999151,TRUE
S028,6,23,male,payoff,short,583,175,183,long,long,0.989054399999986,TRUE
S028,6,23,male,payoff,short,584,175,170,short,long,0.504066400000738,FALSE
S028,6,23,male,payoff,short,585,175,169,short,short,1.2639096999992,TRUE
S028,6,23,male,payoff,short,586,175,179,long,long,0.35239189999993,TRUE
S028,6,23,male,payoff,short,587,175,182,long,short,0.69597419999991,FALSE
S028,6,23,male,payoff,short,588,175,181,long,long,0.869113699999616,TRUE
S028,6,23,male,payoff,short,589,175,168,short,short,1.2891152000002,TRUE
S028,6,23,male,payoff,short,590,175,168,short,short,0.6212230000001,TRUE
S028,6,23,male,payoff,short,591,175,169,short,short,0.670048200000565,TRUE
S028,6,23,male,payoff,short,592,175,167,short,long,0.504823199999919,FALSE
S028,6,23,male,payoff,short,593,175,180,long,long,0.51901689999977,TRUE
S028,6,23,male,payoff,short,594,175,169,short,long,0.416584599999624,FALSE
S028,6,23,male,payoff,short,595,175,181,long,short,0.683023399999911,FALSE
S028,6,23,male,payoff,short,596,175,168,short,long,0.714729000000261,FALSE
S028,6,23,male,payoff,short,597,175,181,long,long,0.613272599999618,TRUE
S028,6,23,male,payoff,short,598,175,170,short,long,1.23461739999948,FALSE
S028,6,23,male,payoff,short,599,175,182,long,long,0.667340699999841,TRUE
S030,6,22,female,payoff,long,0,175,171,short,short,1.29125369999997,TRUE
S030,6,22,female,payoff,long,1,175,168,short,short,0.734449699999914,TRUE
S030,6,22,female,payoff,long,2,175,169,short,short,2.47433430000001,TRUE
S030,6,22,female,payoff,long,3,175,180,long,long,0.736634599999888,TRUE
S030,6,22,female,payoff,long,4,175,171,short,short,1.48057349999999,TRUE
S030,6,22,female,payoff,long,5,175,169,short,short,2.39985319999982,TRUE
S030,6,22,female,payoff,long,6,175,170,short,short,0.697947999999997,TRUE
S030,6,22,female,payoff,long,7,175,181,long,long,0.853445499999907,TRUE
S030,6,22,female,payoff,long,8,175,183,long,long,0.87252999999987,TRUE
S030,6,22,female,payoff,long,9,175,170,short,short,1.2901683,TRUE
S030,6,22,female,payoff,long,10,175,169,short,short,1.94136889999982,TRUE
S030,6,22,female,payoff,long,11,175,182,long,long,0.687395700000025,TRUE
S030,6,22,female,payoff,long,12,175,170,short,short,0.867166900000029,TRUE
S030,6,22,female,payoff,long,13,175,183,long,long,1.42496290000008,TRUE
S030,6,22,female,payoff,long,14,175,169,short,short,0.699619900000016,TRUE
S030,6,22,female,payoff,long,15,175,170,short,short,1.14914720000002,TRUE
S030,6,22,female,payoff,long,16,175,182,long,long,1.94433790000016,TRUE
S030,6,22,female,payoff,long,17,175,169,short,short,1.32111609999993,TRUE
S030,6,22,female,payoff,long,18,175,181,long,long,0.953269699999964,TRUE
S030,6,22,female,payoff,long,19,175,181,long,short,1.46486200000004,FALSE
S030,6,22,female,payoff,long,20,175,181,long,long,3.64432289999991,TRUE
S030,6,22,female,payoff,long,21,175,170,short,short,0.819497299999966,TRUE
S030,6,22,female,payoff,long,22,175,180,long,short,1.28727270000013,FALSE
S030,6,22,female,payoff,long,23,175,167,short,short,0.976948799999946,TRUE
S030,6,22,female,payoff,long,24,175,181,long,long,2.86381399999982,TRUE
S030,6,22,female,payoff,long,25,175,169,short,short,4.30789340000001,TRUE
S030,6,22,female,payoff,long,26,175,182,long,long,3.42879250000033,TRUE
S030,6,22,female,payoff,long,27,175,180,long,short,3.13274309999997,FALSE
S030,6,22,female,payoff,long,28,175,168,short,short,0.601701800000228,TRUE
S030,6,22,female,payoff,long,29,175,182,long,long,0.879172000000381,TRUE
S030,6,22,female,payoff,long,30,175,169,short,short,1.31929300000002,TRUE
S030,6,22,female,payoff,long,31,175,183,long,long,0.642962800000078,TRUE
S030,6,22,female,payoff,long,32,175,170,short,short,0.89246379999986,TRUE
S030,6,22,female,payoff,long,33,175,168,short,short,1.21791070000018,TRUE
S030,6,22,female,payoff,long,34,175,169,short,short,0.762549400000353,TRUE
S030,6,22,female,payoff,long,35,175,168,short,short,0.746278200000234,TRUE
S030,6,22,female,payoff,long,36,175,179,long,long,0.787792999999965,TRUE
S030,6,22,female,payoff,long,37,175,181,long,long,0.399007200000142,TRUE
S030,6,22,female,payoff,long,38,175,170,short,long,1.4254418999999,FALSE
S030,6,22,female,payoff,long,39,175,183,long,long,0.628945399999793,TRUE
S030,6,22,female,payoff,long,40,175,168,short,short,1.0949427999999,TRUE
S030,6,22,female,payoff,long,41,175,169,short,long,0.620281099999829,FALSE
S030,6,22,female,payoff,long,42,175,180,long,long,0.429941500000041,TRUE
S030,6,22,female,payoff,long,43,175,181,long,long,0.514306600000054,TRUE
S030,6,22,female,payoff,long,44,175,167,short,short,0.728152900000168,TRUE
S030,6,22,female,payoff,long,45,175,171,short,short,1.99340519999987,TRUE
S030,6,22,female,payoff,long,46,175,171,short,short,0.705811799999992,TRUE
S030,6,22,female,payoff,long,47,175,181,long,long,0.684486500000276,TRUE
S030,6,22,female,payoff,long,48,175,169,short,long,0.722919700000148,FALSE
S030,6,22,female,payoff,long,49,175,169,short,short,0.891480799999954,TRUE
S029,6,22,female,mullerlyer,short,50,175,180,long,long,2.1996594000002,TRUE
S029,6,22,female,mullerlyer,short,51,175,169,short,short,0.637137599999733,TRUE
S029,6,22,female,mullerlyer,short,52,175,180,long,long,1.71116309999979,TRUE
S029,6,22,female,mullerlyer,short,53,175,168,short,short,1.00793879999992,TRUE
S029,6,22,female,mullerlyer,short,54,175,181,long,long,1.62931430000026,TRUE
S029,6,22,female,mullerlyer,short,55,175,171,short,short,1.22466710000026,TRUE
S029,6,22,female,mullerlyer,short,56,175,171,short,short,0.554657600000155,TRUE
S029,6,22,female,mullerlyer,short,57,175,181,long,long,0.92820840000013,TRUE
S029,6,22,female,mullerlyer,short,58,175,169,short,short,0.936055799999849,TRUE
S029,6,22,female,mullerlyer,short,59,175,169,short,short,0.595949099999871,TRUE
S029,6,22,female,mullerlyer,short,60,175,179,long,short,1.35795749999988,FALSE
S029,6,22,female,mullerlyer,short,61,175,169,short,short,1.15610960000004,TRUE
S029,6,22,female,mullerlyer,short,62,175,168,short,short,0.745949199999814,TRUE
S029,6,22,female,mullerlyer,short,63,175,182,long,long,3.53861559999996,TRUE
S029,6,22,female,mullerlyer,short,64,175,168,short,short,0.607961199999863,TRUE
S029,6,22,female,mullerlyer,short,65,175,181,long,short,1.67465260000017,FALSE
S029,6,22,female,mullerlyer,short,66,175,181,long,long,1.10047919999988,TRUE
S029,6,22,female,mullerlyer,short,67,175,168,short,short,0.53692379999984,TRUE
S029,6,22,female,mullerlyer,short,68,175,180,long,short,3.06101399999989,FALSE
S029,6,22,female,mullerlyer,short,69,175,182,long,long,1.3406700999999,TRUE
S029,6,22,female,mullerlyer,short,70,175,181,long,short,3.48943730000019,FALSE
S029,6,22,female,mullerlyer,short,71,175,169,short,short,0.571547500000179,TRUE
S029,6,22,female,mullerlyer,short,72,175,170,short,short,1.58241469999984,TRUE
S029,6,22,female,mullerlyer,short,73,175,167,short,short,1.71496359999992,TRUE
S029,6,22,female,mullerlyer,short,74,175,170,short,long,0.71951319999971,FALSE
S029,6,22,female,mullerlyer,short,75,175,169,short,short,2.5921272999999,TRUE
S029,6,22,female,mullerlyer,short,76,175,182,long,long,1.78111050000007,TRUE
S029,6,22,female,mullerlyer,short,77,175,170,short,short,1.65805470000032,TRUE
S029,6,22,female,mullerlyer,short,78,175,183,long,long,1.16404039999998,TRUE
S029,6,22,female,mullerlyer,short,79,175,169,short,short,0.963526600000023,TRUE
S029,6,22,female,mullerlyer,short,80,175,182,long,short,1.37200209999992,FALSE
S029,6,22,female,mullerlyer,short,81,175,167,short,short,1.16750730000012,TRUE
S029,6,22,female,mullerlyer,short,82,175,181,long,long,0.560038800000257,TRUE
S029,6,22,female,mullerlyer,short,83,175,180,long,long,0.704519800000071,TRUE
S029,6,22,female,mullerlyer,short,84,175,168,short,short,1.38409430000002,TRUE
S029,6,22,female,mullerlyer,short,85,175,180,long,short,0.913200699999834,FALSE
S029,6,22,female,mullerlyer,short,86,175,179,long,short,1.05796610000016,FALSE
S029,6,22,female,mullerlyer,short,87,175,181,long,long,0.701895200000308,TRUE
S029,6,22,female,mullerlyer,short,88,175,179,long,short,0.610389800000121,FALSE
S029,6,22,female,mullerlyer,short,89,175,181,long,short,2.53607329999977,FALSE
S029,6,22,female,mullerlyer,short,90,175,181,long,short,0.734492799999771,FALSE
S029,6,22,female,mullerlyer,short,91,175,170,short,short,0.665374000000156,TRUE
S029,6,22,female,mullerlyer,short,92,175,180,long,short,0.822827799999686,FALSE
S029,6,22,female,mullerlyer,short,93,175,167,short,short,0.661075000000437,TRUE
S029,6,22,female,mullerlyer,short,94,175,181,long,short,1.1469990999999,FALSE
S029,6,22,female,mullerlyer,short,95,175,170,short,short,0.651365700000042,TRUE
S029,6,22,female,mullerlyer,short,96,175,182,long,short,0.864667499999996,FALSE
S029,6,22,female,mullerlyer,short,97,175,169,short,short,0.452031799999986,TRUE
S029,6,22,female,mullerlyer,short,98,175,181,long,long,0.565437799999927,TRUE
S029,6,22,female,mullerlyer,short,99,175,181,long,long,0.679528399999981,TRUE
S029,6,22,female,mullerlyer,short,100,175,181,long,short,1.53834430000006,FALSE
S029,6,22,female,mullerlyer,short,101,175,168,short,short,0.794361400000071,TRUE
S029,6,22,female,mullerlyer,short,102,175,181,long,short,0.784736099999918,FALSE
S029,6,22,female,mullerlyer,short,103,175,180,long,long,1.45732290000024,TRUE
S029,6,22,female,mullerlyer,short,104,175,181,long,short,0.834353400000055,FALSE
S029,6,22,female,mullerlyer,short,105,175,169,short,short,0.580742600000121,TRUE
S029,6,22,female,mullerlyer,short,106,175,167,short,short,0.435969800000294,TRUE
S029,6,22,female,mullerlyer,short,107,175,171,short,short,1.23093010000002,TRUE
S029,6,22,female,mullerlyer,short,108,175,181,long,long,0.441777000000002,TRUE
S029,6,22,female,mullerlyer,short,109,175,168,short,short,0.514473799999905,TRUE
S029,6,22,female,mullerlyer,short,110,175,169,short,short,0.91069460000017,TRUE
S029,6,22,female,mullerlyer,short,111,175,169,short,short,0.454659500000162,TRUE
S029,6,22,female,mullerlyer,short,112,175,182,long,long,0.727787899999839,TRUE
S029,6,22,female,mullerlyer,short,113,175,182,long,long,0.79125810000005,TRUE
S029,6,22,female,mullerlyer,short,114,175,181,long,long,0.83225930000026,TRUE
S029,6,22,female,mullerlyer,short,115,175,168,short,short,0.93250769999986,TRUE
S029,6,22,female,mullerlyer,short,116,175,179,long,long,0.729391200000009,TRUE
S029,6,22,female,mullerlyer,short,117,175,181,long,long,1.05550089999997,TRUE
S029,6,22,female,mullerlyer,short,118,175,170,short,short,0.591118499999993,TRUE
S029,6,22,female,mullerlyer,short,119,175,183,long,long,1.3974303,TRUE
S029,6,22,female,mullerlyer,short,120,175,180,long,short,1.07629780000025,FALSE
S029,6,22,female,mullerlyer,short,121,175,169,short,short,0.87840610000012,TRUE
S029,6,22,female,mullerlyer,short,122,175,170,short,short,2.20375800000011,TRUE
S029,6,22,female,mullerlyer,short,123,175,170,short,short,1.31068559999994,TRUE
S029,6,22,female,mullerlyer,short,124,175,182,long,short,0.703454800000145,FALSE
S029,6,22,female,mullerlyer,short,125,175,181,long,long,1.76551419999987,TRUE
S029,6,22,female,mullerlyer,short,126,175,181,long,long,0.642131500000232,TRUE
S029,6,22,female,mullerlyer,short,127,175,170,short,short,0.886407299999974,TRUE
S029,6,22,female,mullerlyer,short,128,175,183,long,long,0.600081699999919,TRUE
S029,6,22,female,mullerlyer,short,129,175,168,short,short,0.502677299999959,TRUE
S029,6,22,female,mullerlyer,short,130,175,181,long,short,1.24111000000039,FALSE
S029,6,22,female,mullerlyer,short,131,175,169,short,short,0.784558199999992,TRUE
S029,6,22,female,mullerlyer,short,132,175,180,long,short,1.5895029999997,FALSE
S029,6,22,female,mullerlyer,short,133,175,171,short,short,0.499851800000215,TRUE
S029,6,22,female,mullerlyer,short,134,175,179,long,long,0.787079700000049,TRUE
S029,6,22,female,mullerlyer,short,135,175,169,short,short,1.62891510000009,TRUE
S029,6,22,female,mullerlyer,short,136,175,170,short,short,0.559950700000172,TRUE
S029,6,22,female,mullerlyer,short,137,175,181,long,long,0.631373900000199,TRUE
S029,6,22,female,mullerlyer,short,138,175,183,long,long,0.449453100000028,TRUE
S029,6,22,female,mullerlyer,short,139,175,170,short,short,0.732330700000148,TRUE
S029,6,22,female,mullerlyer,short,140,175,183,long,long,9.62373799999978,TRUE
S029,6,22,female,mullerlyer,short,141,175,183,long,short,2.94818500000019,FALSE
S029,6,22,female,mullerlyer,short,142,175,168,short,short,0.504629499999737,TRUE
S029,6,22,female,mullerlyer,short,143,175,181,long,long,0.448806599999898,TRUE
S029,6,22,female,mullerlyer,short,144,175,182,long,long,0.690617100000054,TRUE
S029,6,22,female,mullerlyer,short,145,175,169,short,short,0.754688799999713,TRUE
S029,6,22,female,mullerlyer,short,146,175,183,long,short,0.585978200000227,FALSE
S029,6,22,female,mullerlyer,short,147,175,170,short,short,1.33491170000025,TRUE
S029,6,22,female,mullerlyer,short,148,175,168,short,short,0.638545499999964,TRUE
S029,6,22,female,mullerlyer,short,149,175,169,short,short,1.20348950000016,TRUE
S030,6,22,female,payoff,long,150,175,169,short,short,1.81928379999999,TRUE
S030,6,22,female,payoff,long,151,175,180,long,long,0.61573159999989,TRUE
S030,6,22,female,payoff,long,152,175,169,short,long,0.624633099999755,FALSE
S030,6,22,female,payoff,long,153,175,169,short,short,1.36329109999997,TRUE
S030,6,22,female,payoff,long,154,175,179,long,long,0.970516899999893,TRUE
S030,6,22,female,payoff,long,155,175,181,long,short,1.66727889999993,FALSE
S030,6,22,female,payoff,long,156,175,169,short,short,0.54480969999986,TRUE
S030,6,22,female,payoff,long,157,175,170,short,short,1.61729809999997,TRUE
S030,6,22,female,payoff,long,158,175,167,short,short,0.816792000000078,TRUE
S030,6,22,female,payoff,long,159,175,170,short,short,1.67438700000002,TRUE
S030,6,22,female,payoff,long,160,175,181,long,long,1.78828109999995,TRUE
S030,6,22,female,payoff,long,161,175,181,long,long,0.402321000000029,TRUE
S030,6,22,female,payoff,long,162,175,168,short,long,1.83029039999974,FALSE
S030,6,22,female,payoff,long,163,175,180,long,long,0.545376699999906,TRUE
S030,6,22,female,payoff,long,164,175,182,long,long,1.47711780000009,TRUE
S030,6,22,female,payoff,long,165,175,183,long,long,0.749625200000082,TRUE
S030,6,22,female,payoff,long,166,175,183,long,long,0.472662499999842,TRUE
S030,6,22,female,payoff,long,167,175,168,short,short,0.584149899999829,TRUE
S030,6,22,female,payoff,long,168,175,181,long,long,0.595750100000259,TRUE
S030,6,22,female,payoff,long,169,175,182,long,long,0.64219120000007,TRUE
S030,6,22,female,payoff,long,170,175,180,long,short,1.14744250000012,FALSE
S030,6,22,female,payoff,long,171,175,181,long,short,0.579893000000084,FALSE
S030,6,22,female,payoff,long,172,175,181,long,long,0.64769989999968,TRUE
S030,6,22,female,payoff,long,173,175,170,short,short,0.644637500000044,TRUE
S030,6,22,female,payoff,long,174,175,180,long,short,3.02331010000034,FALSE
S030,6,22,female,payoff,long,175,175,170,short,short,0.765788499999871,TRUE
S030,6,22,female,payoff,long,176,175,170,short,short,0.458654699999897,TRUE
S030,6,22,female,payoff,long,177,175,181,long,short,0.722477799999979,FALSE
S030,6,22,female,payoff,long,178,175,168,short,short,0.790047500000128,TRUE
S030,6,22,female,payoff,long,179,175,169,short,short,1.0329327999998,TRUE
S030,6,22,female,payoff,long,180,175,182,long,long,0.77471259999993,TRUE
S030,6,22,female,payoff,long,181,175,167,short,short,0.444108700000015,TRUE
S030,6,22,female,payoff,long,182,175,181,long,long,0.471964500000013,TRUE
S030,6,22,female,payoff,long,183,175,180,long,long,0.593449800000144,TRUE
S030,6,22,female,payoff,long,184,175,168,short,short,0.931886100000156,TRUE
S030,6,22,female,payoff,long,185,175,181,long,long,0.767883400000301,TRUE
S030,6,22,female,payoff,long,186,175,168,short,short,0.62240840000004,TRUE
S030,6,22,female,payoff,long,187,175,181,long,long,0.496043500000269,TRUE
S030,6,22,female,payoff,long,188,175,180,long,long,0.470426500000031,TRUE
S030,6,22,female,payoff,long,189,175,181,long,long,0.538180600000032,TRUE
S030,6,22,female,payoff,long,190,175,169,short,short,0.786619199999677,TRUE
S030,6,22,female,payoff,long,191,175,179,long,long,1.15164679999998,TRUE
S030,6,22,female,payoff,long,192,175,182,long,long,0.784148999999616,TRUE
S030,6,22,female,payoff,long,193,175,181,long,long,0.602597900000092,TRUE
S030,6,22,female,payoff,long,194,175,169,short,short,0.742858000000069,TRUE
S030,6,22,female,payoff,long,195,175,181,long,short,0.681422699999985,FALSE
S030,6,22,female,payoff,long,196,175,181,long,long,0.390837800000099,TRUE
S030,6,22,female,payoff,long,197,175,170,short,short,0.730761799999982,TRUE
S030,6,22,female,payoff,long,198,175,183,long,long,0.379953799999839,TRUE
S030,6,22,female,payoff,long,199,175,168,short,short,0.489258199999767,TRUE
S029,6,22,female,mullerlyer,long,200,175,179,long,short,2.95094770000014,FALSE
S029,6,22,female,mullerlyer,long,201,175,169,short,short,1.16533270000036,TRUE
S029,6,22,female,mullerlyer,long,202,175,168,short,short,0.713796600000023,TRUE
S029,6,22,female,mullerlyer,long,203,175,182,long,long,1.06629620000012,TRUE
S029,6,22,female,mullerlyer,long,204,175,168,short,short,0.637365900000077,TRUE
S029,6,22,female,mullerlyer,long,205,175,181,long,long,1.20257110000011,TRUE
S029,6,22,female,mullerlyer,long,206,175,181,long,long,0.445828500000062,TRUE
S029,6,22,female,mullerlyer,long,207,175,170,short,long,0.961427199999889,FALSE
S029,6,22,female,mullerlyer,long,208,175,183,long,long,0.526218999999855,TRUE
S029,6,22,female,mullerlyer,long,209,175,168,short,long,0.623465799999849,FALSE
S029,6,22,female,mullerlyer,long,210,175,169,short,short,0.844000199999755,TRUE
S029,6,22,female,mullerlyer,long,211,175,180,long,long,0.545613100000082,TRUE
S029,6,22,female,mullerlyer,long,212,175,169,short,short,0.800189000000046,TRUE
S029,6,22,female,mullerlyer,long,213,175,169,short,long,0.627672399999938,FALSE
S029,6,22,female,mullerlyer,long,214,175,179,long,long,0.57165329999998,TRUE
S029,6,22,female,mullerlyer,long,215,175,180,long,short,1.14787969999998,FALSE
S029,6,22,female,mullerlyer,long,216,175,169,short,short,0.605960200000027,TRUE
S029,6,22,female,mullerlyer,long,217,175,180,long,short,0.75108739999996,FALSE
S029,6,22,female,mullerlyer,long,218,175,168,short,short,0.95631000000003,TRUE
S029,6,22,female,mullerlyer,long,219,175,181,long,short,0.656996200000322,FALSE
S029,6,22,female,mullerlyer,long,220,175,180,long,short,1.12912270000015,FALSE
S029,6,22,female,mullerlyer,long,221,175,181,long,long,0.602317500000027,TRUE
S029,6,22,female,mullerlyer,long,222,175,181,long,long,1.31289509999988,TRUE
S029,6,22,female,mullerlyer,long,223,175,170,short,short,0.887311899999986,TRUE
S029,6,22,female,mullerlyer,long,224,175,180,long,long,0.726694500000122,TRUE
S029,6,22,female,mullerlyer,long,225,175,171,short,long,1.19730370000025,FALSE
S029,6,22,female,mullerlyer,long,226,175,171,short,long,1.06053740000016,FALSE
S029,6,22,female,mullerlyer,long,227,175,181,long,long,0.507723299999725,TRUE
S029,6,22,female,mullerlyer,long,228,175,169,short,short,0.537292500000149,TRUE
S029,6,22,female,mullerlyer,long,229,175,169,short,short,1.44602880000002,TRUE
S029,6,22,female,mullerlyer,long,230,175,181,long,long,2.07737660000021,TRUE
S029,6,22,female,mullerlyer,long,231,175,181,long,long,0.538356800000202,TRUE
S029,6,22,female,mullerlyer,long,232,175,168,short,long,0.890747999999803,FALSE
S029,6,22,female,mullerlyer,long,233,175,180,long,long,0.509803999999804,TRUE
S029,6,22,female,mullerlyer,long,234,175,182,long,long,0.791192300000148,TRUE
S029,6,22,female,mullerlyer,long,235,175,181,long,long,1.09667799999988,TRUE
S029,6,22,female,mullerlyer,long,236,175,168,short,long,0.703894499999933,FALSE
S029,6,22,female,mullerlyer,long,237,175,181,long,long,1.62496050000027,TRUE
S029,6,22,female,mullerlyer,long,238,175,180,long,long,1.01577190000035,TRUE
S029,6,22,female,mullerlyer,long,239,175,181,long,long,0.755317900000136,TRUE
S029,6,22,female,mullerlyer,long,240,175,183,long,long,0.882936800000152,TRUE
S029,6,22,female,mullerlyer,long,241,175,183,long,long,0.499107600000116,TRUE
S029,6,22,female,mullerlyer,long,242,175,168,short,short,0.843422200000077,TRUE
S029,6,22,female,mullerlyer,long,243,175,181,long,long,0.437179699999888,TRUE
S029,6,22,female,mullerlyer,long,244,175,182,long,long,0.860850500000197,TRUE
S029,6,22,female,mullerlyer,long,245,175,169,short,long,0.994178899999952,FALSE
S029,6,22,female,mullerlyer,long,246,175,182,long,long,0.628189900000052,TRUE
S029,6,22,female,mullerlyer,long,247,175,170,short,long,0.729776700000002,FALSE
S029,6,22,female,mullerlyer,long,248,175,183,long,long,0.529023900000084,TRUE
S029,6,22,female,mullerlyer,long,249,175,169,short,short,0.911183200000323,TRUE
S030,6,22,female,payoff,short,250,175,181,long,short,4.44394190000003,FALSE
S030,6,22,female,payoff,short,251,175,170,short,short,0.834057799999755,TRUE
S030,6,22,female,payoff,short,252,175,180,long,short,1.87407070000017,FALSE
S030,6,22,female,payoff,short,253,175,167,short,short,0.627457799999775,TRUE
S030,6,22,female,payoff,short,254,175,181,long,long,2.09592620000012,TRUE
S030,6,22,female,payoff,short,255,175,169,short,short,0.624584900000173,TRUE
S030,6,22,female,payoff,short,256,175,170,short,short,0.549649800000225,TRUE
S030,6,22,female,payoff,short,257,175,181,long,long,0.660630099999707,TRUE
S030,6,22,female,payoff,short,258,175,183,long,long,0.455916599999909,TRUE
S030,6,22,female,payoff,short,259,175,170,short,short,0.607401100000061,TRUE
S030,6,22,female,payoff,short,260,175,180,long,short,0.779609700000037,FALSE
S030,6,22,female,payoff,short,261,175,169,short,short,0.397468200000276,TRUE
S030,6,22,female,payoff,short,262,175,180,long,short,0.932138299999679,FALSE
S030,6,22,female,payoff,short,263,175,168,short,short,0.69936110000026,TRUE
S030,6,22,female,payoff,short,264,175,181,long,long,0.73731220000036,TRUE
S030,6,22,female,payoff,short,265,175,180,long,short,0.590014999999767,FALSE
S030,6,22,female,payoff,short,266,175,179,long,long,0.690468600000258,TRUE
S030,6,22,female,payoff,short,267,175,181,long,long,0.490833299999849,TRUE
S030,6,22,female,payoff,short,268,175,179,long,short,0.747897199999898,FALSE
S030,6,22,female,payoff,short,269,175,181,long,short,1.01821880000034,FALSE
S030,6,22,female,payoff,short,270,175,171,short,short,0.633545900000172,TRUE
S030,6,22,female,payoff,short,271,175,171,short,short,0.570418199999949,TRUE
S030,6,22,female,payoff,short,272,175,181,long,long,0.638985200000207,TRUE
S030,6,22,female,payoff,short,273,175,169,short,short,0.537908900000275,TRUE
S030,6,22,female,payoff,short,274,175,169,short,short,1.3149112000001,TRUE
S030,6,22,female,payoff,short,275,175,180,long,short,1.29737639999985,FALSE
S030,6,22,female,payoff,short,276,175,181,long,short,0.607875700000022,FALSE
S030,6,22,female,payoff,short,277,175,181,long,short,0.855685799999719,FALSE
S030,6,22,female,payoff,short,278,175,170,short,short,0.53891590000012,TRUE
S030,6,22,female,payoff,short,279,175,180,long,short,0.653786999999738,FALSE
S030,6,22,female,payoff,short,280,175,169,short,short,0.56133490000002,TRUE
S030,6,22,female,payoff,short,281,175,179,long,long,0.66513359999999,TRUE
S030,6,22,female,payoff,short,282,175,182,long,long,0.591217099999994,TRUE
S030,6,22,female,payoff,short,283,175,181,long,long,1.1685021000003,TRUE
S030,6,22,female,payoff,short,284,175,169,short,short,0.650312000000213,TRUE
S030,6,22,female,payoff,short,285,175,181,long,short,1.55772869999964,FALSE
S030,6,22,female,payoff,short,286,175,169,short,short,1.06178259999979,TRUE
S030,6,22,female,payoff,short,287,175,170,short,short,0.536738299999797,TRUE
S030,6,22,female,payoff,short,288,175,167,short,short,0.805562099999861,TRUE
S030,6,22,female,payoff,short,289,175,170,short,short,0.645727399999942,TRUE
S030,6,22,female,payoff,short,290,175,169,short,short,1.16959859999997,TRUE
S030,6,22,female,payoff,short,291,175,167,short,short,0.573148299999957,TRUE
S030,6,22,female,payoff,short,292,175,167,short,short,0.518598700000439,TRUE
S030,6,22,female,payoff,short,293,175,169,short,short,0.665115099999639,TRUE
S030,6,22,female,payoff,short,294,175,180,long,long,0.598590199999762,TRUE
S030,6,22,female,payoff,short,295,175,169,short,short,0.706957600000351,TRUE
S030,6,22,female,payoff,short,296,175,169,short,short,0.70215619999999,TRUE
S030,6,22,female,payoff,short,297,175,182,long,long,0.68201769999996,TRUE
S030,6,22,female,payoff,short,298,175,182,long,long,0.972731899999872,TRUE
S030,6,22,female,payoff,short,299,175,181,long,long,0.500800199999958,TRUE
S029,6,22,female,mullerlyer,long,300,175,169,short,short,5.2684948000001,TRUE
S029,6,22,female,mullerlyer,long,301,175,167,short,long,0.786741299999903,FALSE
S029,6,22,female,mullerlyer,long,302,175,167,short,long,0.673537399999987,FALSE
S029,6,22,female,mullerlyer,long,303,175,169,short,long,1.28942000000006,FALSE
S029,6,22,female,mullerlyer,long,304,175,180,long,long,0.835541599999942,TRUE
S029,6,22,female,mullerlyer,long,305,175,181,long,long,1.43294990000004,TRUE
S029,6,22,female,mullerlyer,long,306,175,169,short,short,0.931907099999989,TRUE
S029,6,22,female,mullerlyer,long,307,175,170,short,short,0.807742999999846,TRUE
S029,6,22,female,mullerlyer,long,308,175,167,short,short,2.42578309999999,TRUE
S029,6,22,female,mullerlyer,long,309,175,170,short,long,0.550373300000047,FALSE
S029,6,22,female,mullerlyer,long,310,175,170,short,short,0.965314600000056,TRUE
S029,6,22,female,mullerlyer,long,311,175,182,long,long,0.981412399999954,TRUE
S029,6,22,female,mullerlyer,long,312,175,169,short,short,0.963798499999939,TRUE
S029,6,22,female,mullerlyer,long,313,175,181,long,short,0.595538699999906,FALSE
S029,6,22,female,mullerlyer,long,314,175,181,long,short,0.833241300000282,FALSE
S029,6,22,female,mullerlyer,long,315,175,180,long,short,1.43865349999987,FALSE
S029,6,22,female,mullerlyer,long,316,175,179,long,long,1.65036370000007,TRUE
S029,6,22,female,mullerlyer,long,317,175,181,long,long,0.502905800000008,TRUE
S029,6,22,female,mullerlyer,long,318,175,179,long,short,0.637814400000025,FALSE
S029,6,22,female,mullerlyer,long,319,175,181,long,long,0.856752899999719,TRUE
S029,6,22,female,mullerlyer,long,320,175,169,short,short,1.21281210000007,TRUE
S029,6,22,female,mullerlyer,long,321,175,170,short,short,1.96259899999996,TRUE
S029,6,22,female,mullerlyer,long,322,175,181,long,long,0.751798600000257,TRUE
S029,6,22,female,mullerlyer,long,323,175,183,long,long,0.539200700000038,TRUE
S029,6,22,female,mullerlyer,long,324,175,170,short,short,0.650033099999746,TRUE
S029,6,22,female,mullerlyer,long,325,175,169,short,short,3.13096369999994,TRUE
S029,6,22,female,mullerlyer,long,326,175,179,long,short,0.658605399999942,FALSE
S029,6,22,female,mullerlyer,long,327,175,182,long,long,0.494997400000102,TRUE
S029,6,22,female,mullerlyer,long,328,175,181,long,long,0.484328900000037,TRUE
S029,6,22,female,mullerlyer,long,329,175,169,short,short,0.721836300000177,TRUE
S029,6,22,female,mullerlyer,long,330,175,180,long,short,1.74251059999961,FALSE
S029,6,22,female,mullerlyer,long,331,175,169,short,short,0.50092100000029,TRUE
S029,6,22,female,mullerlyer,long,332,175,170,short,short,0.926179600000069,TRUE
S029,6,22,female,mullerlyer,long,333,175,170,short,short,0.695363700000144,TRUE
S029,6,22,female,mullerlyer,long,334,175,182,long,long,0.893534199999976,TRUE
S029,6,22,female,mullerlyer,long,335,175,169,short,short,3.0017512999998,TRUE
S029,6,22,female,mullerlyer,long,336,175,167,short,short,0.432668500000091,TRUE
S029,6,22,female,mullerlyer,long,337,175,171,short,short,2.01651050000009,TRUE
S029,6,22,female,mullerlyer,long,338,175,181,long,long,0.425270600000204,TRUE
S029,6,22,female,mullerlyer,long,339,175,168,short,short,0.626245500000096,TRUE
S029,6,22,female,mullerlyer,long,340,175,181,long,long,2.35970450000013,TRUE
S029,6,22,female,mullerlyer,long,341,175,182,long,long,0.599920000000111,TRUE
S029,6,22,female,mullerlyer,long,342,175,169,short,short,0.660721700000067,TRUE
S029,6,22,female,mullerlyer,long,343,175,169,short,short,0.805520100000194,TRUE
S029,6,22,female,mullerlyer,long,344,175,182,long,long,0.534943000000112,TRUE
S029,6,22,female,mullerlyer,long,345,175,168,short,short,2.00812989999986,TRUE
S029,6,22,female,mullerlyer,long,346,175,169,short,short,1.81778160000022,TRUE
S029,6,22,female,mullerlyer,long,347,175,180,long,short,0.909228800000164,FALSE
S029,6,22,female,mullerlyer,long,348,175,181,long,long,0.799526799999967,TRUE
S029,6,22,female,mullerlyer,long,349,175,167,short,short,1.01816809999991,TRUE
S030,6,22,female,payoff,long,350,175,179,long,short,0.910986099999718,FALSE
S030,6,22,female,payoff,long,351,175,169,short,short,1.14705030000005,TRUE
S030,6,22,female,payoff,long,352,175,168,short,long,0.673577000000023,FALSE
S030,6,22,female,payoff,long,353,175,182,long,long,0.539583400000083,TRUE
S030,6,22,female,payoff,long,354,175,168,short,short,0.837815100000171,TRUE
S030,6,22,female,payoff,long,355,175,169,short,short,1.64137089999986,TRUE
S030,6,22,female,payoff,long,356,175,167,short,long,0.441495699999905,FALSE
S030,6,22,female,payoff,long,357,175,167,short,long,0.830686199999946,FALSE
S030,6,22,female,payoff,long,358,175,169,short,long,1.03697599999987,FALSE
S030,6,22,female,payoff,long,359,175,180,long,long,0.563400699999875,TRUE
S030,6,22,female,payoff,long,360,175,171,short,short,0.747695000000022,TRUE
S030,6,22,female,payoff,long,361,175,182,long,long,0.37217819999978,TRUE
S030,6,22,female,payoff,long,362,175,170,short,short,0.831777699999748,TRUE
S030,6,22,female,payoff,long,363,175,168,short,short,0.605064500000026,TRUE
S030,6,22,female,payoff,long,364,175,182,long,long,0.383766500000092,TRUE
S030,6,22,female,payoff,long,365,175,180,long,long,0.850079599999845,TRUE
S030,6,22,female,payoff,long,366,175,169,short,long,0.417259600000307,FALSE
S030,6,22,female,payoff,long,367,175,180,long,long,0.599370599999929,TRUE
S030,6,22,female,payoff,long,368,175,168,short,short,0.493811299999834,TRUE
S030,6,22,female,payoff,long,369,175,181,long,long,0.56638410000005,TRUE
S030,6,22,female,payoff,long,370,175,169,short,short,0.607906000000185,TRUE
S030,6,22,female,payoff,long,371,175,169,short,short,0.529571800000213,TRUE
S030,6,22,female,payoff,long,372,175,182,long,long,0.548786899999868,TRUE
S030,6,22,female,payoff,long,373,175,182,long,long,0.415408699999716,TRUE
S030,6,22,female,payoff,long,374,175,181,long,long,0.509313999999904,TRUE
S030,6,22,female,payoff,long,375,175,181,long,short,0.94351370000004,FALSE
S030,6,22,female,payoff,long,376,175,182,long,short,1.66204620000008,FALSE
S030,6,22,female,payoff,long,377,175,169,short,short,0.702842099999998,TRUE
S030,6,22,female,payoff,long,378,175,169,short,short,0.509333099999822,TRUE
S030,6,22,female,payoff,long,379,175,182,long,long,0.699164399999972,TRUE
S030,6,22,female,payoff,long,380,175,169,short,short,0.649606200000108,TRUE
S030,6,22,female,payoff,long,381,175,167,short,short,0.493109800000184,TRUE
S030,6,22,female,payoff,long,382,175,171,short,long,0.389649100000042,FALSE
S030,6,22,female,payoff,long,383,175,181,long,long,0.350713100000121,TRUE
S030,6,22,female,payoff,long,384,175,168,short,long,1.12104960000033,FALSE
S030,6,22,female,payoff,long,385,175,180,long,short,0.489568499999677,FALSE
S030,6,22,female,payoff,long,386,175,169,short,short,0.660393000000113,TRUE
S030,6,22,female,payoff,long,387,175,170,short,short,1.17449050000005,TRUE
S030,6,22,female,payoff,long,388,175,170,short,short,0.533868999999868,TRUE
S030,6,22,female,payoff,long,389,175,182,long,long,0.424848199999815,TRUE
S030,6,22,female,payoff,long,390,175,181,long,long,0.76635400000032,TRUE
S030,6,22,female,payoff,long,391,175,169,short,long,0.423221300000023,FALSE
S030,6,22,female,payoff,long,392,175,180,long,long,0.588771799999904,TRUE
S030,6,22,female,payoff,long,393,175,171,short,short,0.623505999999907,TRUE
S030,6,22,female,payoff,long,394,175,179,long,long,0.512958300000264,TRUE
S030,6,22,female,payoff,long,395,175,180,long,long,0.61975510000002,TRUE
S030,6,22,female,payoff,long,396,175,179,long,long,0.379305700000259,TRUE
S030,6,22,female,payoff,long,397,175,181,long,long,0.413656100000026,TRUE
S030,6,22,female,payoff,long,398,175,179,long,long,0.611133000000336,TRUE
S030,6,22,female,payoff,long,399,175,181,long,short,0.804904100000385,FALSE
S030,6,22,female,payoff,short,400,175,181,long,long,0.888100099999974,TRUE
S030,6,22,female,payoff,short,401,175,181,long,long,0.464403100000709,TRUE
S030,6,22,female,payoff,short,402,175,170,short,short,0.532745800000157,TRUE
S030,6,22,female,payoff,short,403,175,183,long,long,0.540041000000201,TRUE
S030,6,22,female,payoff,short,404,175,168,short,short,0.498965400000088,TRUE
S030,6,22,female,payoff,short,405,175,171,short,long,0.941328099999737,FALSE
S030,6,22,female,payoff,short,406,175,168,short,short,0.682632899999589,TRUE
S030,6,22,female,payoff,short,407,175,169,short,long,0.84401969999999,FALSE
S030,6,22,female,payoff,short,408,175,180,long,long,0.497918799999752,TRUE
S030,6,22,female,payoff,short,409,175,171,short,short,2.68695639999987,TRUE
S030,6,22,female,payoff,short,410,175,183,long,long,1.05986339999981,TRUE
S030,6,22,female,payoff,short,411,175,183,long,long,0.808709899999485,TRUE
S030,6,22,female,payoff,short,412,175,168,short,short,0.408399900000404,TRUE
S030,6,22,female,payoff,short,413,175,181,long,long,0.645527699999548,TRUE
S030,6,22,female,payoff,short,414,175,182,long,short,0.855049199999485,FALSE
S030,6,22,female,payoff,short,415,175,169,short,short,0.466229000000567,TRUE
S030,6,22,female,payoff,short,416,175,183,long,short,0.533547799999724,FALSE
S030,6,22,female,payoff,short,417,175,170,short,short,0.767506299999695,TRUE
S030,6,22,female,payoff,short,418,175,168,short,short,0.666093999999248,TRUE
S030,6,22,female,payoff,short,419,175,169,short,short,0.7859183999999,TRUE
S030,6,22,female,payoff,short,420,175,171,short,short,0.674833099999887,TRUE
S030,6,22,female,payoff,short,421,175,182,long,short,0.834381299999222,FALSE
S030,6,22,female,payoff,short,422,175,170,short,short,0.680186300000059,TRUE
S030,6,22,female,payoff,short,423,175,168,short,short,1.94951800000035,TRUE
S030,6,22,female,payoff,short,424,175,182,long,long,0.614204299999983,TRUE
S030,6,22,female,payoff,short,425,175,179,long,long,1.07463310000003,TRUE
S030,6,22,female,payoff,short,426,175,169,short,long,0.820617800000036,FALSE
S030,6,22,female,payoff,short,427,175,168,short,long,0.877762199999779,FALSE
S030,6,22,female,payoff,short,428,175,182,long,long,0.542543700000351,TRUE
S030,6,22,female,payoff,short,429,175,168,short,short,0.551777900000161,TRUE
S030,6,22,female,payoff,short,430,175,181,long,short,0.978772599999502,FALSE
S030,6,22,female,payoff,short,431,175,168,short,short,0.56303299999945,TRUE
S030,6,22,female,payoff,short,432,175,181,long,long,0.43582779999997,TRUE
S030,6,22,female,payoff,short,433,175,180,long,short,0.862811900000452,FALSE
S030,6,22,female,payoff,short,434,175,181,long,short,0.511665899999571,FALSE
S030,6,22,female,payoff,short,435,175,182,long,short,1.10424989999956,FALSE
S030,6,22,female,payoff,short,436,175,167,short,short,0.832317099999273,TRUE
S030,6,22,female,payoff,short,437,175,181,long,long,0.503133199999866,TRUE
S030,6,22,female,payoff,short,438,175,180,long,long,0.74541119999958,TRUE
S030,6,22,female,payoff,short,439,175,168,short,short,0.501362800000607,TRUE
S030,6,22,female,payoff,short,440,175,169,short,short,0.541246799999499,TRUE
S030,6,22,female,payoff,short,441,175,182,long,long,0.802453599999353,TRUE
S030,6,22,female,payoff,short,442,175,170,short,short,0.546296000000439,TRUE
S030,6,22,female,payoff,short,443,175,183,long,long,0.992582899999434,TRUE
S030,6,22,female,payoff,short,444,175,169,short,short,0.497321300000294,TRUE
S030,6,22,female,payoff,short,445,175,169,short,short,0.524589799999376,TRUE
S030,6,22,female,payoff,short,446,175,182,long,long,0.719563499999822,TRUE
S030,6,22,female,payoff,short,447,175,180,long,long,1.30044399999952,TRUE
S030,6,22,female,payoff,short,448,175,168,short,short,0.5496820999997,TRUE
S030,6,22,female,payoff,short,449,175,182,long,short,0.984175499999765,FALSE
S029,6,22,female,mullerlyer,short,450,175,181,long,short,2.56369209999957,FALSE
S029,6,22,female,mullerlyer,short,451,175,182,long,long,0.669686700000057,TRUE
S029,6,22,female,mullerlyer,short,452,175,169,short,short,0.668030599999838,TRUE
S029,6,22,female,mullerlyer,short,453,175,169,short,short,0.827578999999787,TRUE
S029,6,22,female,mullerlyer,short,454,175,182,long,long,0.888850499999535,TRUE
S029,6,22,female,mullerlyer,short,455,175,169,short,short,0.568693500000336,TRUE
S029,6,22,female,mullerlyer,short,456,175,179,long,long,0.642307600000095,TRUE
S029,6,22,female,mullerlyer,short,457,175,182,long,long,0.427919599999768,TRUE
S029,6,22,female,mullerlyer,short,458,175,181,long,short,0.59715049999977,FALSE
S029,6,22,female,mullerlyer,short,459,175,169,short,short,0.456692599999769,TRUE
S029,6,22,female,mullerlyer,short,460,175,169,short,short,0.549549700000171,TRUE
S029,6,22,female,mullerlyer,short,461,175,182,long,long,0.42920839999988,TRUE
S029,6,22,female,mullerlyer,short,462,175,180,long,long,1.01938549999977,TRUE
S029,6,22,female,mullerlyer,short,463,175,168,short,short,1.03590669999994,TRUE
S029,6,22,female,mullerlyer,short,464,175,182,long,long,0.597808399999849,TRUE
S029,6,22,female,mullerlyer,short,465,175,169,short,short,0.647427699999753,TRUE
S029,6,22,female,mullerlyer,short,466,175,180,long,long,0.672802199999751,TRUE
S029,6,22,female,mullerlyer,short,467,175,169,short,short,1.34282919999987,TRUE
S029,6,22,female,mullerlyer,short,468,175,169,short,short,0.461394300000393,TRUE
S029,6,22,female,mullerlyer,short,469,175,179,long,short,0.611264899999696,FALSE
S029,6,22,female,mullerlyer,short,470,175,170,short,short,0.494437999999718,TRUE
S029,6,22,female,mullerlyer,short,471,175,170,short,short,0.569901300000311,TRUE
S029,6,22,female,mullerlyer,short,472,175,181,long,long,1.03706130000046,TRUE
S029,6,22,female,mullerlyer,short,473,175,168,short,short,0.984316499999295,TRUE
S029,6,22,female,mullerlyer,short,474,175,169,short,short,0.733148100000108,TRUE
S029,6,22,female,mullerlyer,short,475,175,169,short,short,0.641418999999587,TRUE
S029,6,22,female,mullerlyer,short,476,175,167,short,short,0.556468300000233,TRUE
S029,6,22,female,mullerlyer,short,477,175,167,short,short,1.10331580000002,TRUE
S029,6,22,female,mullerlyer,short,478,175,169,short,short,0.514518199999657,TRUE
S029,6,22,female,mullerlyer,short,479,175,180,long,long,0.66998859999967,TRUE
S029,6,22,female,mullerlyer,short,480,175,168,short,short,0.532817299999806,TRUE
S029,6,22,female,mullerlyer,short,481,175,169,short,short,0.56976399999985,TRUE
S029,6,22,female,mullerlyer,short,482,175,180,long,long,0.469963099999404,TRUE
S029,6,22,female,mullerlyer,short,483,175,181,long,long,1.32009610000023,TRUE
S029,6,22,female,mullerlyer,short,484,175,167,short,short,0.887285300000258,TRUE
S029,6,22,female,mullerlyer,short,485,175,180,long,short,2.2672862999998,FALSE
S029,6,22,female,mullerlyer,short,486,175,181,long,long,0.454845199999909,TRUE
S029,6,22,female,mullerlyer,short,487,175,181,long,long,1.06346219999978,TRUE
S029,6,22,female,mullerlyer,short,488,175,170,short,long,0.671969200000603,FALSE
S029,6,22,female,mullerlyer,short,489,175,180,long,long,0.631229599999642,TRUE
S029,6,22,female,mullerlyer,short,490,175,171,short,short,0.457590400000299,TRUE
S029,6,22,female,mullerlyer,short,491,175,182,long,long,0.706338599999981,TRUE
S029,6,22,female,mullerlyer,short,492,175,170,short,short,0.437234600000011,TRUE
S029,6,22,female,mullerlyer,short,493,175,168,short,short,0.640192099999695,TRUE
S029,6,22,female,mullerlyer,short,494,175,182,long,long,0.500671699999657,TRUE
S029,6,22,female,mullerlyer,short,495,175,171,short,short,0.549579099999392,TRUE
S029,6,22,female,mullerlyer,short,496,175,168,short,short,0.46031529999982,TRUE
S029,6,22,female,mullerlyer,short,497,175,169,short,short,0.658221499999854,TRUE
S029,6,22,female,mullerlyer,short,498,175,180,long,long,0.611675099999957,TRUE
S029,6,22,female,mullerlyer,short,499,175,171,short,short,0.599007499999971,TRUE
S030,6,22,female,payoff,short,500,175,169,short,short,3.35146929999973,TRUE
S030,6,22,female,payoff,short,501,175,167,short,short,0.688408499999241,TRUE
S030,6,22,female,payoff,short,502,175,171,short,short,0.863386199999695,TRUE
S030,6,22,female,payoff,short,503,175,181,long,long,0.560100500000772,TRUE
S030,6,22,female,payoff,short,504,175,168,short,short,0.508917600000132,TRUE
S030,6,22,female,payoff,short,505,175,169,short,short,0.657863100000213,TRUE
S030,6,22,female,payoff,short,506,175,180,long,long,0.697911400000521,TRUE
S030,6,22,female,payoff,short,507,175,169,short,short,0.427651399999377,TRUE
S030,6,22,female,payoff,short,508,175,169,short,short,0.679877600000509,TRUE
S030,6,22,female,payoff,short,509,175,179,long,long,0.469276799999534,TRUE
S030,6,22,female,payoff,short,510,175,170,short,short,0.557975499999884,TRUE
S030,6,22,female,payoff,short,511,175,170,short,short,0.578483399999641,TRUE
S030,6,22,female,payoff,short,512,175,181,long,long,0.697964000000866,TRUE
S030,6,22,female,payoff,short,513,175,168,short,short,0.358321899999282,TRUE
S030,6,22,female,payoff,short,514,175,169,short,short,0.407618200000798,TRUE
S030,6,22,female,payoff,short,515,175,168,short,short,2.11584159999984,TRUE
S030,6,22,female,payoff,short,516,175,179,long,long,0.744653400000061,TRUE
S030,6,22,female,payoff,short,517,175,181,long,long,1.08200459999989,TRUE
S030,6,22,female,payoff,short,518,175,170,short,short,0.403292399999373,TRUE
S030,6,22,female,payoff,short,519,175,183,long,short,0.365528499999527,FALSE
S030,6,22,female,payoff,short,520,175,181,long,short,0.684309799999937,FALSE
S030,6,22,female,payoff,short,521,175,169,short,short,0.384130999999797,TRUE
S030,6,22,female,payoff,short,522,175,180,long,short,0.501088300000447,FALSE
S030,6,22,female,payoff,short,523,175,171,short,short,0.464367100000345,TRUE
S030,6,22,female,payoff,short,524,175,179,long,long,0.587183300000106,TRUE
S030,6,22,female,payoff,short,525,175,181,long,long,1.30801419999989,TRUE
S030,6,22,female,payoff,short,526,175,182,long,long,0.440306800000144,TRUE
S030,6,22,female,payoff,short,527,175,169,short,short,0.478155499999957,TRUE
S030,6,22,female,payoff,short,528,175,169,short,short,0.508476500000143,TRUE
S030,6,22,female,payoff,short,529,175,182,long,long,0.423958700000185,TRUE
S030,6,22,female,payoff,short,530,175,181,long,short,0.463285900000301,FALSE
S030,6,22,female,payoff,short,531,175,181,long,short,1.09322399999928,FALSE
S030,6,22,female,payoff,short,532,175,168,short,short,0.446767599999475,TRUE
S030,6,22,female,payoff,short,533,175,180,long,long,0.51609230000031,TRUE
S030,6,22,female,payoff,short,534,175,182,long,long,0.671363200000087,TRUE
S030,6,22,female,payoff,short,535,175,168,short,short,0.42439319999994,TRUE
S030,6,22,female,payoff,short,536,175,169,short,short,0.66529249999985,TRUE
S030,6,22,female,payoff,short,537,175,180,long,long,0.450741600000583,TRUE
S030,6,22,female,payoff,short,538,175,181,long,long,0.417968400000063,TRUE
S030,6,22,female,payoff,short,539,175,167,short,short,0.446900799999639,TRUE
S030,6,22,female,payoff,short,540,175,180,long,short,0.949929700000212,FALSE
S030,6,22,female,payoff,short,541,175,169,short,short,0.488392199999907,TRUE
S030,6,22,female,payoff,short,542,175,170,short,short,0.587383199999749,TRUE
S030,6,22,female,payoff,short,543,175,170,short,short,0.489163700000063,TRUE
S030,6,22,female,payoff,short,544,175,182,long,long,0.58139140000003,TRUE
S030,6,22,female,payoff,short,545,175,170,short,short,0.47848840000006,TRUE
S030,6,22,female,payoff,short,546,175,182,long,short,0.736657100000229,FALSE
S030,6,22,female,payoff,short,547,175,169,short,short,0.823504099999809,TRUE
S030,6,22,female,payoff,short,548,175,181,long,short,0.752131999999619,FALSE
S030,6,22,female,payoff,short,549,175,181,long,short,0.433401199999935,FALSE
S029,6,22,female,mullerlyer,long,550,175,182,long,long,1.07459930000004,TRUE
S029,6,22,female,mullerlyer,long,551,175,167,short,short,1.00435199999993,TRUE
S029,6,22,female,mullerlyer,long,552,175,181,long,long,0.467530800000532,TRUE
S029,6,22,female,mullerlyer,long,553,175,180,long,long,0.677670500000204,TRUE
S029,6,22,female,mullerlyer,long,554,175,168,short,short,0.575299799999812,TRUE
S029,6,22,female,mullerlyer,long,555,175,171,short,long,1.45636350000041,FALSE
S029,6,22,female,mullerlyer,long,556,175,182,long,long,0.94948210000075,TRUE
S029,6,22,female,mullerlyer,long,557,175,170,short,short,0.413263399999778,TRUE
S029,6,22,female,mullerlyer,long,558,175,168,short,short,0.735242800000378,TRUE
S029,6,22,female,mullerlyer,long,559,175,182,long,long,0.721190600000227,TRUE
S029,6,22,female,mullerlyer,long,560,175,169,short,short,0.773614000000634,TRUE
S029,6,22,female,mullerlyer,long,561,175,183,long,long,0.658338500000354,TRUE
S029,6,22,female,mullerlyer,long,562,175,170,short,short,0.554683700000169,TRUE
S029,6,22,female,mullerlyer,long,563,175,168,short,short,0.542950000000019,TRUE
S029,6,22,female,mullerlyer,long,564,175,169,short,short,2.42151769999964,TRUE
S029,6,22,female,mullerlyer,long,565,175,170,short,short,0.707915400000275,TRUE
S029,6,22,female,mullerlyer,long,566,175,170,short,short,0.613666799999919,TRUE
S029,6,22,female,mullerlyer,long,567,175,181,long,long,0.711806599999363,TRUE
S029,6,22,female,mullerlyer,long,568,175,168,short,short,0.462560300000405,TRUE
S029,6,22,female,mullerlyer,long,569,175,169,short,short,0.497327900000528,TRUE
S029,6,22,female,mullerlyer,long,570,175,181,long,long,0.849661000000197,TRUE
S029,6,22,female,mullerlyer,long,571,175,170,short,short,0.587510199999997,TRUE
S029,6,22,female,mullerlyer,long,572,175,180,long,short,0.826370099999622,FALSE
S029,6,22,female,mullerlyer,long,573,175,167,short,short,0.789381300000059,TRUE
S029,6,22,female,mullerlyer,long,574,175,181,long,long,0.591206899999634,TRUE
S029,6,22,female,mullerlyer,long,575,175,181,long,long,1.52304099999947,TRUE
S029,6,22,female,mullerlyer,long,576,175,169,short,short,0.442114299999957,TRUE
S029,6,22,female,mullerlyer,long,577,175,180,long,long,0.806609199999912,TRUE
S029,6,22,female,mullerlyer,long,578,175,171,short,short,0.566477499999564,TRUE
S029,6,22,female,mullerlyer,long,579,175,179,long,short,1.12112339999931,FALSE
S029,6,22,female,mullerlyer,long,580,175,169,short,short,0.607918499999869,TRUE
S029,6,22,female,mullerlyer,long,581,175,169,short,short,1.16491829999995,TRUE
S029,6,22,female,mullerlyer,long,582,175,182,long,long,0.480264400000124,TRUE
S029,6,22,female,mullerlyer,long,583,175,182,long,long,0.535969700000351,TRUE
S029,6,22,female,mullerlyer,long,584,175,181,long,long,0.624407400000564,TRUE
S029,6,22,female,mullerlyer,long,585,175,171,short,short,0.701742199999899,TRUE
S029,6,22,female,mullerlyer,long,586,175,168,short,short,0.518151800000851,TRUE
S029,6,22,female,mullerlyer,long,587,175,169,short,short,0.490536999999677,TRUE
S029,6,22,female,mullerlyer,long,588,175,180,long,long,0.616182499999923,TRUE
S029,6,22,female,mullerlyer,long,589,175,171,short,short,0.641795300000013,TRUE
S029,6,22,female,mullerlyer,long,590,175,168,short,short,0.598729100000128,TRUE
S029,6,22,female,mullerlyer,long,591,175,179,long,short,0.542631600000277,FALSE
S029,6,22,female,mullerlyer,long,592,175,181,long,short,0.773258899999746,FALSE
S029,6,22,female,mullerlyer,long,593,175,170,short,short,1.9393614999999,TRUE
S029,6,22,female,mullerlyer,long,594,175,183,long,long,0.617019400000572,TRUE
S029,6,22,female,mullerlyer,long,595,175,169,short,short,0.53347069999927,TRUE
S029,6,22,female,mullerlyer,long,596,175,182,long,long,0.488350999999966,TRUE
S029,6,22,female,mullerlyer,long,597,175,180,long,long,0.662157700000535,TRUE
S029,6,22,female,mullerlyer,long,598,175,168,short,short,0.638121199999659,TRUE
S029,6,22,female,mullerlyer,long,599,175,182,long,long,0.48692469999969,TRUE
S033,4,22,female,payoff,short,0,175,178,long,short,7.26680800000031,FALSE
S033,4,22,female,payoff,short,1,175,172,short,short,0.751384099999996,TRUE
S033,4,22,female,payoff,short,2,175,169,short,short,2.06522419999965,TRUE
S033,4,22,female,payoff,short,3,175,180,long,long,0.895561399998769,TRUE
S033,4,22,female,payoff,short,4,175,180,long,long,1.49858989999848,TRUE
S033,4,22,female,payoff,short,5,175,179,long,long,12.3089314999997,TRUE
S033,4,22,female,payoff,short,6,175,171,short,short,1.41399020000063,TRUE
S033,4,22,female,payoff,short,7,175,180,long,long,0.784978600000613,TRUE
S033,4,22,female,payoff,short,8,175,180,long,long,0.726028000000952,TRUE
S033,4,22,female,payoff,short,9,175,178,long,short,1.5139022000003,FALSE
S033,4,22,female,payoff,short,10,175,170,short,short,3.27484730000106,TRUE
S033,4,22,female,payoff,short,11,175,172,short,short,0.926989999999932,TRUE
S033,4,22,female,payoff,short,12,175,171,short,short,0.783866800000396,TRUE
S033,4,22,female,payoff,short,13,175,179,long,long,1.47356949999994,TRUE
S033,4,22,female,payoff,short,14,175,181,long,long,0.944956099998308,TRUE
S033,4,22,female,payoff,short,15,175,180,long,short,5.03333700000076,FALSE
S033,4,22,female,payoff,short,16,175,180,long,long,2.38360380000086,TRUE
S033,4,22,female,payoff,short,17,175,178,long,short,1.01514339999994,FALSE
S033,4,22,female,payoff,short,18,175,172,short,short,0.776764999998704,TRUE
S033,4,22,female,payoff,short,19,175,171,short,short,0.798868199999561,TRUE
S033,4,22,female,payoff,short,20,175,170,short,short,3.49155240000073,TRUE
S033,4,22,female,payoff,short,21,175,179,long,long,1.48573620000025,TRUE
S033,4,22,female,payoff,short,22,175,169,short,short,0.590026300000318,TRUE
S033,4,22,female,payoff,short,23,175,171,short,short,1.1877500999999,TRUE
S033,4,22,female,payoff,short,24,175,180,long,long,0.721733599999425,TRUE
S033,4,22,female,payoff,short,25,175,171,short,short,0.974812999998903,TRUE
S033,4,22,female,payoff,short,26,175,171,short,short,0.701896200000192,TRUE
S033,4,22,female,payoff,short,27,175,180,long,long,1.34755859999859,TRUE
S033,4,22,female,payoff,short,28,175,171,short,short,0.572608599999512,TRUE
S033,4,22,female,payoff,short,29,175,180,long,short,0.654362699999183,FALSE
S033,4,22,female,payoff,short,30,175,177,long,short,1.65803190000042,FALSE
S033,4,22,female,payoff,short,31,175,171,short,short,1.47559339999862,TRUE
S033,4,22,female,payoff,short,32,175,178,long,long,0.830109500000617,TRUE
S033,4,22,female,payoff,short,33,175,180,long,long,0.96947050000017,TRUE
S033,4,22,female,payoff,short,34,175,170,short,short,0.827153099999123,TRUE
S033,4,22,female,payoff,short,35,175,173,short,short,0.974802599999748,TRUE
S033,4,22,female,payoff,short,36,175,179,long,long,0.972946099998808,TRUE
S033,4,22,female,payoff,short,37,175,177,long,long,5.16028759999972,TRUE
S033,4,22,female,payoff,short,38,175,172,short,long,0.878751000000193,FALSE
S033,4,22,female,payoff,short,39,175,171,short,short,0.681584500000099,TRUE
S033,4,22,female,payoff,short,40,175,178,long,short,1.80805080000027,FALSE
S033,4,22,female,payoff,short,41,175,173,short,long,0.781968200000847,FALSE
S033,4,22,female,payoff,short,42,175,173,short,short,3.01642700000048,TRUE
S033,4,22,female,payoff,short,43,175,171,short,short,0.813277299999754,TRUE
S033,4,22,female,payoff,short,44,175,178,long,long,0.821493899999041,TRUE
S033,4,22,female,payoff,short,45,175,171,short,short,2.31642869999996,TRUE
S033,4,22,female,payoff,short,46,175,179,long,long,0.706446199999846,TRUE
S033,4,22,female,payoff,short,47,175,179,long,long,2.1890284000001,TRUE
S033,4,22,female,payoff,short,48,175,181,long,long,1.13784889999988,TRUE
S033,4,22,female,payoff,short,49,175,178,long,long,0.792034100000819,TRUE
S033,4,22,female,payoff,short,50,175,177,long,short,2.0079951000007,FALSE
S033,4,22,female,payoff,short,51,175,180,long,short,1.34506189999956,FALSE
S033,4,22,female,payoff,short,52,175,171,short,short,0.885939699999653,TRUE
S033,4,22,female,payoff,short,53,175,171,short,short,1.33381379999992,TRUE
S033,4,22,female,payoff,short,54,175,179,long,long,3.14006579999841,TRUE
S033,4,22,female,payoff,short,55,175,177,long,short,3.13320619999831,FALSE
S033,4,22,female,payoff,short,56,175,172,short,short,1.09756649999872,TRUE
S033,4,22,female,payoff,short,57,175,178,long,long,2.31648589999895,TRUE
S033,4,22,female,payoff,short,58,175,170,short,short,0.545107100000678,TRUE
S033,4,22,female,payoff,short,59,175,179,long,long,2.42335640000056,TRUE
S033,4,22,female,payoff,short,60,175,171,short,short,1.56653830000141,TRUE
S033,4,22,female,payoff,short,61,175,172,short,short,0.891023800000766,TRUE
S033,4,22,female,payoff,short,62,175,179,long,short,1.99591040000087,FALSE
S033,4,22,female,payoff,short,63,175,180,long,long,0.743859799998972,TRUE
S033,4,22,female,payoff,short,64,175,170,short,short,4.16615080000156,TRUE
S033,4,22,female,payoff,short,65,175,179,long,long,2.09986980000031,TRUE
S033,4,22,female,payoff,short,66,175,171,short,short,0.677386800000022,TRUE
S033,4,22,female,payoff,short,67,175,180,long,long,2.63895319999938,TRUE
S033,4,22,female,payoff,short,68,175,172,short,short,1.32217069999933,TRUE
S033,4,22,female,payoff,short,69,175,171,short,short,1.3580593000006,TRUE
S033,4,22,female,payoff,short,70,175,170,short,short,0.883072099999481,TRUE
S033,4,22,female,payoff,short,71,175,178,long,long,3.44795440000053,TRUE
S033,4,22,female,payoff,short,72,175,180,long,long,0.74029580000024,TRUE
S033,4,22,female,payoff,short,73,175,171,short,short,0.608818400000018,TRUE
S033,4,22,female,payoff,short,74,175,179,long,long,5.15607410000121,TRUE
S033,4,22,female,payoff,short,75,175,171,short,long,3.93314809999902,FALSE
S033,4,22,female,payoff,short,76,175,171,short,short,0.997764800000368,TRUE
S033,4,22,female,payoff,short,77,175,178,long,short,0.901479800000743,FALSE
S033,4,22,female,payoff,short,78,175,179,long,short,0.967754300001616,FALSE
S033,4,22,female,payoff,short,79,175,181,long,short,0.6079553999989,FALSE
S033,4,22,female,payoff,short,80,175,170,short,short,2.12473490000048,TRUE
S033,4,22,female,payoff,short,81,175,170,short,long,0.689066299999467,FALSE
S033,4,22,female,payoff,short,82,175,181,long,long,0.625186799999938,TRUE
S033,4,22,female,payoff,short,83,175,179,long,long,0.554504100000486,TRUE
S033,4,22,female,payoff,short,84,175,180,long,long,0.72561929999938,TRUE
S033,4,22,female,payoff,short,85,175,179,long,long,4.17016770000009,TRUE
S033,4,22,female,payoff,short,86,175,169,short,short,0.626086100000975,TRUE
S033,4,22,female,payoff,short,87,175,172,short,short,5.00421110000025,TRUE
S033,4,22,female,payoff,short,88,175,181,long,long,1.23854829999982,TRUE
S033,4,22,female,payoff,short,89,175,172,short,short,0.836862899999687,TRUE
S033,4,22,female,payoff,short,90,175,177,long,short,1.43384589999914,FALSE
S033,4,22,female,payoff,short,91,175,169,short,short,1.70925249999891,TRUE
S033,4,22,female,payoff,short,92,175,173,short,long,0.685087400001066,FALSE
S033,4,22,female,payoff,short,93,175,179,long,long,2.24961299999995,TRUE
S033,4,22,female,payoff,short,94,175,171,short,short,0.986896499998693,TRUE
S033,4,22,female,payoff,short,95,175,178,long,long,3.22635199999968,TRUE
S033,4,22,female,payoff,short,96,175,179,long,long,4.28963420000036,TRUE
S033,4,22,female,payoff,short,97,175,171,short,short,1.02963620000082,TRUE
S033,4,22,female,payoff,short,98,175,171,short,short,0.728025500000513,TRUE
S033,4,22,female,payoff,short,99,175,170,short,short,1.15324370000053,TRUE
S032,4,22,female,mullerlyer,short,100,175,171,short,long,8.20034630000009,FALSE
S032,4,22,female,mullerlyer,short,101,175,172,short,long,1.47562450000078,FALSE
S032,4,22,female,mullerlyer,short,102,175,179,long,long,0.982333899999503,TRUE
S032,4,22,female,mullerlyer,short,103,175,180,long,long,0.837495200001285,TRUE
S032,4,22,female,mullerlyer,short,104,175,170,short,long,3.91253719999986,FALSE
S032,4,22,female,mullerlyer,short,105,175,170,short,short,1.19125850000091,TRUE
S032,4,22,female,mullerlyer,short,106,175,172,short,short,0.588668899999902,TRUE
S032,4,22,female,mullerlyer,short,107,175,180,long,long,3.42576970000118,TRUE
S032,4,22,female,mullerlyer,short,108,175,169,short,long,4.16828450000139,FALSE
S032,4,22,female,mullerlyer,short,109,175,171,short,long,1.75383930000135,FALSE
S032,4,22,female,mullerlyer,short,110,175,170,short,long,8.40320179999981,FALSE
S032,4,22,female,mullerlyer,short,111,175,178,long,long,0.768189399999756,TRUE
S032,4,22,female,mullerlyer,short,112,175,180,long,long,0.956511000000319,TRUE
